timestamp,pressure,accel_x,accel_y,accel_z
2025-05-09 12:46:43.242547,573.6,0.0344,-0.0119,0.9711
2025-05-09 12:46:43.242930,573.6,0.0344,-0.0119,0.9711
2025-05-09 12:46:43.295298,586.8,0.0446,-0.0068,0.9711
2025-05-09 12:46:43.295615,586.8,0.0446,-0.0068,0.9711
2025-05-09 12:46:43.368710,586.8,0.0446,-0.0068,0.9711
2025-05-09 12:46:43.486779,586.8,0.0349,-0.0146,0.9626
2025-05-09 12:46:43.487074,586.8,0.0349,-0.0146,0.9626
2025-05-09 12:46:43.539615,613.0,0.0297,-0.0185,0.9643
2025-05-09 12:46:43.540439,613.0,0.0297,-0.0185,0.9643
2025-05-09 12:46:43.540844,613.0,0.0297,-0.0185,0.9643
2025-05-09 12:46:43.695366,599.9,0.0383,-0.0051,0.958
2025-05-09 12:46:43.695875,599.9,0.0383,-0.0051,0.958
2025-05-09 12:46:43.790161,599.9,0.0383,-0.0051,0.958
2025-05-09 12:46:43.790483,599.9,0.0383,-0.0051,0.958
2025-05-09 12:46:43.918213,573.6,0.0322,-0.0119,0.9726
2025-05-09 12:46:44.001065,573.6,0.039,-0.0139,0.9711
2025-05-09 12:46:44.291571,534.3,0.0371,-0.0205,0.9699
2025-05-09 12:46:44.291749,534.3,0.0371,-0.0205,0.9699
2025-05-09 12:46:44.563804,639.2,0.0383,-0.0097,0.9687
2025-05-09 12:46:44.595263,613.0,0.04,-0.0156,0.9812
2025-05-09 12:46:44.595598,613.0,0.04,-0.0156,0.9812
2025-05-09 12:46:44.674820,613.0,0.04,-0.0156,0.9812
2025-05-09 12:46:44.995997,586.8,0.0378,-0.0107,0.9672
2025-05-09 12:46:44.996267,586.8,0.0378,-0.0107,0.9672
2025-05-09 12:46:45.144337,599.9,0.0358,-0.0107,0.9638
2025-05-09 12:46:45.144523,599.9,0.0358,-0.0107,0.9638
2025-05-09 12:46:45.186414,599.9,0.0358,-0.0107,0.9638
2025-05-09 12:46:45.186660,599.9,0.0358,-0.0107,0.9638
2025-05-09 12:46:45.197510,599.9,0.0339,-0.0085,0.9758
2025-05-09 12:46:45.197973,599.9,0.0339,-0.0085,0.9758
2025-05-09 12:46:45.338965,586.8,0.0356,-0.0092,0.9631
2025-05-09 12:46:45.339270,586.8,0.0356,-0.0092,0.9631
2025-05-09 12:46:45.386857,586.8,0.0356,-0.0092,0.9631
2025-05-09 12:46:45.387246,586.8,0.0356,-0.0092,0.9631
2025-05-09 12:46:45.396575,599.9,0.0349,-0.0134,0.9699
2025-05-09 12:46:45.396794,599.9,0.0349,-0.0134,0.9699
2025-05-09 12:46:45.491652,599.9,0.0349,-0.0134,0.9699
2025-05-09 12:46:45.491992,599.9,0.0349,-0.0134,0.9699
2025-05-09 12:46:45.799641,599.9,0.0366,-0.008,0.977
2025-05-09 12:46:46.283378,586.8,0.0346,-0.0104,0.965
2025-05-09 12:46:46.283669,586.8,0.0346,-0.0104,0.965
2025-05-09 12:46:46.340805,586.8,0.0385,-0.0126,0.9709
2025-05-09 12:46:46.341123,586.8,0.0385,-0.0126,0.9709
2025-05-09 12:46:46.439251,573.6,0.0332,-0.0227,0.9777
2025-05-09 12:46:46.439482,573.6,0.0332,-0.0227,0.9777
2025-05-09 12:46:46.705167,586.8,0.0358,-0.0185,0.965
2025-05-09 12:46:46.881273,599.9,0.0366,-0.0107,0.9614
2025-05-09 12:46:46.887502,599.9,0.0373,-0.0148,0.9707
2025-05-09 12:46:46.887818,599.9,0.0373,-0.0148,0.9707
2025-05-09 12:46:47.084707,560.5,0.0361,-0.0148,0.9682
2025-05-09 12:46:47.085079,560.5,0.0361,-0.0148,0.9682
2025-05-09 12:46:47.199346,599.9,0.04,-0.0117,0.9807
2025-05-09 12:46:47.199694,599.9,0.04,-0.0117,0.9807
2025-05-09 12:46:47.245701,599.9,0.04,-0.0117,0.9807
2025-05-09 12:46:47.245972,599.9,0.04,-0.0117,0.9807
2025-05-09 12:46:47.665482,613.0,0.0388,-0.009,0.9738
2025-05-09 12:46:47.681135,613.0,0.0388,-0.009,0.9738
2025-05-09 12:46:47.681446,613.0,0.0388,-0.009,0.9738
2025-05-09 12:46:47.796269,573.6,0.0344,-0.0161,0.9714
2025-05-09 12:46:47.797144,573.6,0.0344,-0.0161,0.9714
2025-05-09 12:46:48.140166,573.6,0.0339,-0.0124,0.9707
2025-05-09 12:46:48.357073,573.6,0.0412,-0.0112,0.9719
2025-05-09 12:46:48.738271,599.9,0.0419,-0.0092,0.9707
2025-05-09 12:46:48.738900,599.9,0.0419,-0.0092,0.9707
2025-05-09 12:46:48.806224,599.9,0.0419,-0.0092,0.9707
2025-05-09 12:46:49.386571,586.8,0.028,-0.0056,0.9863
2025-05-09 12:46:49.387101,586.8,0.028,-0.0056,0.9863
2025-05-09 12:46:49.397862,573.6,0.0244,-0.0146,0.9428
2025-05-09 12:46:49.398170,573.6,0.0244,-0.0146,0.9428
2025-05-09 12:46:49.906296,573.6,0.0383,-0.0053,0.9775
2025-05-09 12:46:50.737161,573.6,0.0339,-0.0053,0.9672
2025-05-09 12:46:50.829799,547.4,0.0439,-0.0139,0.9638
2025-05-09 12:46:50.890224,573.6,0.0366,-0.0073,0.9624
2025-05-09 12:46:51.116895,560.5,0.0375,-0.0146,0.9694
2025-05-09 12:46:51.438276,599.9,0.0385,0.0019,0.9558
2025-05-09 12:46:51.438557,599.9,0.0385,0.0019,0.9558
2025-05-09 12:46:52.947067,560.5,0.0312,-0.0166,0.9704
2025-05-09 12:46:52.947245,560.5,0.0312,-0.0166,0.9704
2025-05-09 12:46:53.543602,586.8,0.0314,-0.0112,0.9614
2025-05-09 12:46:53.544185,586.8,0.0314,-0.0112,0.9614
2025-05-09 12:46:53.900096,639.2,0.0373,-0.0102,0.9707
2025-05-09 12:46:54.146028,586.8,0.0317,-0.0136,0.9697
2025-05-09 12:46:54.146243,586.8,0.0317,-0.0136,0.9697
2025-05-09 12:46:54.996813,626.1,0.0385,-0.0068,0.9729
2025-05-09 12:46:55.345945,599.9,0.0332,-0.0126,0.9672
2025-05-09 12:46:55.346284,599.9,0.0332,-0.0126,0.9672
2025-05-09 12:46:56.197937,639.2,0.0341,-0.0173,0.9636
2025-05-09 12:46:56.288410,665.4,0.0336,-0.0109,0.9714
2025-05-09 12:46:56.288841,665.4,0.0336,-0.0109,0.9714
2025-05-09 12:46:56.597716,613.0,0.0571,-0.0166,1.031
2025-05-09 12:46:56.598314,613.0,0.0571,-0.0166,1.031
2025-05-09 12:46:56.901911,613.0,0.0468,-0.0366,0.9643
2025-05-09 12:46:57.744666,639.2,0.0371,-0.0051,0.9621
2025-05-09 12:46:57.745047,639.2,0.0371,-0.0051,0.9621
2025-05-09 12:47:00.187014,626.1,0.0366,-0.0139,0.966
2025-05-09 12:47:00.187266,626.1,0.0366,-0.0139,0.966
2025-05-09 12:47:00.493623,639.2,0.0354,-0.0175,0.9624
2025-05-09 12:47:01.696842,586.8,0.0397,-0.0175,0.9606
2025-05-09 12:47:01.697046,586.8,0.0397,-0.0175,0.9606
2025-05-09 12:47:02.195758,586.8,0.0344,-0.0178,0.9645
2025-05-09 12:47:02.196114,586.8,0.0344,-0.0178,0.9645
2025-05-09 12:47:03.195545,626.1,0.0322,-0.0175,0.9746
2025-05-09 12:47:03.196057,626.1,0.0322,-0.0175,0.9746
2025-05-09 12:47:03.740866,599.9,0.0288,-0.0104,0.979
2025-05-09 12:47:03.741136,599.9,0.0288,-0.0104,0.979
2025-05-09 12:47:04.340930,586.8,0.0354,-0.0119,0.9738
2025-05-09 12:47:04.341187,586.8,0.0354,-0.0119,0.9738
2025-05-09 12:47:06.136815,560.5,0.0368,-0.008,0.9692
2025-05-09 12:47:06.137229,560.5,0.0368,-0.008,0.9692
2025-05-09 12:47:06.179588,560.5,0.0368,-0.008,0.9692
2025-05-09 12:47:06.179894,560.5,0.0368,-0.008,0.9692
2025-05-09 12:47:07.096270,573.6,0.0373,-0.0107,0.9794
2025-05-09 12:47:07.096803,573.6,0.0373,-0.0107,0.9794
2025-05-09 12:47:07.920805,573.6,0.031,-0.0126,0.9687
2025-05-09 12:47:07.945566,573.6,0.031,-0.0126,0.9687
2025-05-09 12:47:07.945909,573.6,0.031,-0.0126,0.9687
2025-05-09 12:47:08.085861,573.6,0.0361,-0.0078,0.9702
2025-05-09 12:47:08.086230,573.6,0.0361,-0.0078,0.9702
2025-05-09 12:47:08.096051,613.0,0.0327,-0.0207,0.9697
2025-05-09 12:47:08.096738,613.0,0.0327,-0.0207,0.9697
2025-05-09 12:47:08.298324,613.0,0.0356,-0.0087,0.9672
2025-05-09 12:47:08.298502,613.0,0.0356,-0.0087,0.9672
2025-05-09 12:47:09.520069,626.1,0.039,-0.0104,0.9714
2025-05-09 12:47:10.381195,626.1,0.0363,-0.0134,0.9614
2025-05-09 12:47:10.381541,626.1,0.0363,-0.0134,0.9614
2025-05-09 12:47:10.595873,652.3,0.0346,-0.0087,0.9812
2025-05-09 12:47:10.596207,652.3,0.0346,-0.0087,0.9812
2025-05-09 12:47:10.637006,652.3,0.0346,-0.0087,0.9812
2025-05-09 12:47:10.637205,652.3,0.0346,-0.0087,0.9812
2025-05-09 12:47:11.186803,613.0,0.0351,-0.0092,0.9733
2025-05-09 12:47:11.187142,613.0,0.0351,-0.0092,0.9733
2025-05-09 12:47:11.295666,613.0,0.04,-0.0141,0.9689
2025-05-09 12:47:11.295919,613.0,0.04,-0.0141,0.9689
2025-05-09 12:47:11.538483,639.2,0.0297,-0.0129,0.9631
2025-05-09 12:47:11.538883,639.2,0.0297,-0.0129,0.9631
2025-05-09 12:47:11.598290,639.2,0.0297,-0.0129,0.9631
2025-05-09 12:47:11.797604,626.1,0.0354,-0.0065,0.9729
2025-05-09 12:47:11.797780,626.1,0.0354,-0.0065,0.9729
2025-05-09 12:47:12.094689,613.0,0.0383,-0.009,0.9799
2025-05-09 12:47:12.094899,613.0,0.0383,-0.009,0.9799
2025-05-09 12:47:12.496232,626.1,0.028,-0.0117,0.9765
2025-05-09 12:47:12.496491,626.1,0.028,-0.0117,0.9765
2025-05-09 12:47:12.696956,678.5,0.0407,-0.0153,0.9685
2025-05-09 12:47:12.697178,678.5,0.0407,-0.0153,0.9685
2025-05-09 12:47:13.094654,678.5,0.0314,-0.0119,0.9665
2025-05-09 12:47:13.095001,678.5,0.0314,-0.0119,0.9665
2025-05-09 12:47:14.245240,626.1,0.0356,-0.0112,0.9748
2025-05-09 12:47:14.245471,626.1,0.0356,-0.0112,0.9748
2025-05-09 12:47:14.795822,613.0,0.0363,-0.0153,0.9675
2025-05-09 12:47:14.796381,613.0,0.0363,-0.0153,0.9675
2025-05-09 12:47:14.840089,613.0,0.0363,-0.0153,0.9675
2025-05-09 12:47:14.840403,613.0,0.0363,-0.0153,0.9675
2025-05-09 12:47:14.895577,626.1,0.0349,-0.0109,0.9604
2025-05-09 12:47:14.896418,626.1,0.0349,-0.0109,0.9604
2025-05-09 12:47:15.417189,613.0,0.0334,-0.0107,0.9743
2025-05-09 12:47:15.695723,599.9,0.0305,-0.0112,0.9704
2025-05-09 12:47:15.696097,599.9,0.0305,-0.0112,0.9704
2025-05-09 12:47:16.089835,639.2,0.0356,-0.0109,0.965
2025-05-09 12:47:16.090103,639.2,0.0356,-0.0109,0.965
2025-05-09 12:47:16.298131,626.1,0.0385,-0.0139,0.9626
2025-05-09 12:47:16.298453,626.1,0.0385,-0.0139,0.9626
2025-05-09 12:47:16.872100,626.1,0.0346,-0.0119,0.9694
2025-05-09 12:47:17.796346,613.0,0.0361,-0.0019,0.9758
2025-05-09 12:47:17.796692,613.0,0.0361,-0.0019,0.9758
2025-05-09 12:47:18.098463,626.1,0.0375,-0.0163,0.9753
2025-05-09 12:47:18.098833,626.1,0.0375,-0.0163,0.9753
2025-05-09 12:47:18.744267,586.8,0.0422,-0.0114,0.9633
2025-05-09 12:47:18.744934,586.8,0.0422,-0.0114,0.9633
2025-05-09 12:47:19.033007,586.8,0.0432,-0.0275,0.9675
2025-05-09 12:47:19.618567,613.0,0.0295,-0.0153,0.9643
2025-05-09 12:47:19.897010,573.6,0.0368,-0.0202,0.9755
2025-05-09 12:47:19.897311,573.6,0.0368,-0.0202,0.9755
2025-05-09 12:47:20.240403,613.0,0.0332,-0.01,0.9675
2025-05-09 12:47:20.240659,613.0,0.0332,-0.01,0.9675
2025-05-09 12:47:20.491658,613.0,0.0332,-0.01,0.9675
2025-05-09 12:47:20.495596,599.9,0.0427,-0.0095,0.9648
2025-05-09 12:47:20.495862,599.9,0.0427,-0.0095,0.9648
2025-05-09 12:47:20.942907,599.9,0.0407,-0.0161,0.9394
2025-05-09 12:47:20.943230,599.9,0.0407,-0.0161,0.9394
2025-05-09 12:47:21.440714,547.4,0.039,-0.0156,0.9692
2025-05-09 12:47:21.440979,547.4,0.039,-0.0156,0.9692
2025-05-09 12:47:21.704710,599.9,0.0344,-0.0192,0.9687
2025-05-09 12:47:21.831352,599.9,0.0344,-0.0192,0.9687
2025-05-09 12:47:21.845242,599.9,0.0378,-0.0122,0.9694
2025-05-09 12:47:21.845620,599.9,0.0378,-0.0122,0.9694
2025-05-09 12:47:21.997981,626.1,0.0341,-0.0065,0.9621
2025-05-09 12:47:21.998571,626.1,0.0341,-0.0065,0.9621
2025-05-09 12:47:22.042450,626.1,0.0341,-0.0065,0.9621
2025-05-09 12:47:22.042917,626.1,0.0341,-0.0065,0.9621
2025-05-09 12:47:22.796123,613.0,0.03,-0.0166,0.9724
2025-05-09 12:47:22.796431,613.0,0.03,-0.0166,0.9724
2025-05-09 12:47:23.238269,586.8,0.0378,-0.0141,0.9621
2025-05-09 12:47:23.238751,586.8,0.0378,-0.0141,0.9621
2025-05-09 12:47:23.545216,613.0,0.0356,-0.0129,0.9709
2025-05-09 12:47:23.545947,613.0,0.0356,-0.0129,0.9709
2025-05-09 12:47:23.797807,599.9,0.0412,-0.0083,0.9616
2025-05-09 12:47:23.798037,599.9,0.0407,-0.0124,0.9743
2025-05-09 12:47:23.798334,599.9,0.0407,-0.0124,0.9743
2025-05-09 12:47:24.187472,586.8,0.038,-0.0156,0.9753
2025-05-09 12:47:24.187819,586.8,0.038,-0.0156,0.9753
2025-05-09 12:47:24.241700,613.0,0.0388,-0.0161,0.9604
2025-05-09 12:47:24.242079,613.0,0.0388,-0.0161,0.9604
2025-05-09 12:47:24.485382,626.1,0.0415,-0.0092,0.9704
2025-05-09 12:47:24.485736,626.1,0.0415,-0.0092,0.9704
2025-05-09 12:47:24.713559,573.6,0.039,-0.0058,0.9714
2025-05-09 12:47:24.759749,599.9,0.0402,-0.019,0.9714
2025-05-09 12:47:25.804184,613.0,0.0358,0.0034,0.9628
2025-05-09 12:47:25.939685,599.9,0.0395,-0.0144,0.9729
2025-05-09 12:47:25.940113,599.9,0.0395,-0.0144,0.9729
2025-05-09 12:47:26.260094,573.6,0.0402,-0.0119,0.9609
2025-05-09 12:47:27.439316,639.2,0.0314,-0.0144,0.9672
2025-05-09 12:47:27.439618,639.2,0.0314,-0.0144,0.9672
2025-05-09 12:47:27.481936,639.2,0.0314,-0.0144,0.9672
2025-05-09 12:47:27.482155,639.2,0.0314,-0.0144,0.9672
2025-05-09 12:47:28.021266,639.2,0.0358,-0.0158,0.9809
2025-05-09 12:47:28.297203,599.9,0.0351,-0.0092,0.9531
2025-05-09 12:47:28.297595,599.9,0.0351,-0.0092,0.9531
2025-05-09 12:47:28.898066,613.0,0.0366,-0.0131,0.9707
2025-05-09 12:47:28.898536,613.0,0.0366,-0.0131,0.9707
2025-05-09 12:47:28.985143,613.0,0.0366,-0.0131,0.9707
2025-05-09 12:47:28.985864,613.0,0.0366,-0.0131,0.9707
2025-05-09 12:47:29.245801,586.8,0.0329,-0.0205,0.9599
2025-05-09 12:47:29.246066,586.8,0.0329,-0.0205,0.9599
2025-05-09 12:47:29.609411,573.6,0.0329,-0.0109,0.9636
2025-05-09 12:47:29.838235,626.1,0.0356,-0.0168,0.9667
2025-05-09 12:47:29.838572,626.1,0.0356,-0.0168,0.9667
2025-05-09 12:47:30.097173,626.1,0.0349,-0.009,0.9733
2025-05-09 12:47:30.097486,626.1,0.0349,-0.009,0.9733
2025-05-09 12:47:30.158114,626.1,0.0349,-0.009,0.9733
2025-05-09 12:47:30.437486,547.4,0.0412,-0.0083,0.9658
2025-05-09 12:47:30.438010,547.4,0.0412,-0.0083,0.9658
2025-05-09 12:47:30.739458,599.9,0.0397,-0.0124,0.9663
2025-05-09 12:47:30.739869,599.9,0.0397,-0.0124,0.9663
2025-05-09 12:47:31.040632,599.9,0.0371,-0.0148,0.9707
2025-05-09 12:47:31.041086,599.9,0.0371,-0.0148,0.9707
2025-05-09 12:47:31.362942,599.9,0.0349,-0.0146,0.9572
2025-05-09 12:47:31.615954,586.8,0.0373,-0.0134,0.9792
2025-05-09 12:47:31.686332,586.8,0.0373,-0.0134,0.9792
2025-05-09 12:47:31.687055,586.8,0.0373,-0.0134,0.9792
2025-05-09 12:47:31.945319,573.6,0.0363,-0.0134,0.9692
2025-05-09 12:47:31.945937,573.6,0.0363,-0.0134,0.9692
2025-05-09 12:47:32.043505,599.9,0.0366,-0.0117,0.9633
2025-05-09 12:47:32.044513,599.9,0.0366,-0.0117,0.9633
2025-05-09 12:47:32.194725,586.8,0.0351,-0.0092,0.9797
2025-05-09 12:47:32.195244,586.8,0.0351,-0.0092,0.9797
2025-05-09 12:47:33.987749,613.0,0.0361,-0.0185,0.9814
2025-05-09 12:47:34.295479,547.4,0.0346,-0.0139,0.9855
2025-05-09 12:47:34.295837,547.4,0.0346,-0.0139,0.9855
2025-05-09 12:47:34.396700,534.3,0.031,-0.0097,0.966
2025-05-09 12:47:34.397047,534.3,0.031,-0.0097,0.966
2025-05-09 12:47:34.641714,547.4,0.0341,-0.0117,0.9714
2025-05-09 12:47:35.497212,573.6,0.0339,-0.0107,0.9655
2025-05-09 12:47:35.497535,573.6,0.0339,-0.0107,0.9655
2025-05-09 12:47:35.885069,599.9,0.038,-0.0217,0.9633
2025-05-09 12:47:35.885534,599.9,0.038,-0.0217,0.9633
2025-05-09 12:47:36.401234,599.9,0.0373,-0.0217,0.9899
2025-05-09 12:47:36.995505,613.0,0.0363,-0.0073,0.9726
2025-05-09 12:47:37.030182,613.0,0.0427,-0.0078,0.9648
2025-05-09 12:47:37.058372,613.0,0.0427,-0.0078,0.9648
2025-05-09 12:47:37.297009,599.9,0.0354,-0.0104,0.9663
2025-05-09 12:47:37.297449,599.9,0.0354,-0.0104,0.9663
2025-05-09 12:47:37.694591,599.9,0.0388,-0.0102,0.9665
2025-05-09 12:47:37.694742,599.9,0.0388,-0.0102,0.9665
2025-05-09 12:47:37.895846,613.0,0.0356,-0.0131,0.9719
2025-05-09 12:47:37.896314,613.0,0.0356,-0.0131,0.9719
2025-05-09 12:47:38.226120,652.3,0.0358,-0.0078,0.9704
2025-05-09 12:47:38.595197,652.3,0.0349,-0.0187,0.9758
2025-05-09 12:47:38.595572,639.2,0.029,-0.0192,0.975
2025-05-09 12:47:38.595742,639.2,0.029,-0.0192,0.975
2025-05-09 12:47:39.087693,652.3,0.0383,-0.0212,0.9753
2025-05-09 12:47:39.088126,652.3,0.0383,-0.0212,0.9753
2025-05-09 12:47:39.391837,626.1,0.0405,-0.018,0.9658
2025-05-09 12:47:40.378233,652.3,0.04,-0.0053,0.9746
2025-05-09 12:47:40.378731,652.3,0.04,-0.0053,0.9746
2025-05-09 12:47:40.588934,639.2,0.0366,-0.0043,0.9799
2025-05-09 12:47:40.589316,639.2,0.0366,-0.0043,0.9799
2025-05-09 12:47:40.596139,639.2,0.0383,-0.0065,0.9631
2025-05-09 12:47:40.596356,639.2,0.0383,-0.0065,0.9631
2025-05-09 12:47:40.661746,639.2,0.0383,-0.0065,0.9631
2025-05-09 12:47:40.898841,639.2,0.0314,-0.0053,0.9743
2025-05-09 12:47:40.899183,639.2,0.0314,-0.0053,0.9743
2025-05-09 12:47:41.540902,626.1,0.0351,-0.0151,0.9704
2025-05-09 12:47:41.541211,626.1,0.0351,-0.0151,0.9704
2025-05-09 12:47:41.996149,652.3,0.0339,-0.0134,0.9721
2025-05-09 12:47:41.997201,652.3,0.0324,-0.0124,0.9689
2025-05-09 12:47:41.997540,652.3,0.0324,-0.0124,0.9689
2025-05-09 12:47:42.395526,626.1,0.0358,-0.0085,0.9667
2025-05-09 12:47:42.395742,626.1,0.0358,-0.0085,0.9667
2025-05-09 12:47:42.495648,639.2,0.031,-0.0148,0.9692
2025-05-09 12:47:42.495845,639.2,0.031,-0.0148,0.9692
2025-05-09 12:47:42.697735,652.3,0.038,-0.0158,0.9677
2025-05-09 12:47:42.697951,652.3,0.038,-0.0158,0.9677
2025-05-09 12:47:42.817330,665.4,0.0332,-0.0117,0.9621
2025-05-09 12:47:43.043928,652.3,0.0346,-0.0119,0.9682
2025-05-09 12:47:43.044575,652.3,0.0346,-0.0119,0.9682
2025-05-09 12:47:43.344242,626.1,0.04,-0.0109,0.9704
2025-05-09 12:47:43.344789,626.1,0.04,-0.0109,0.9704
2025-05-09 12:47:43.395479,599.9,0.0346,-0.0053,0.9719
2025-05-09 12:47:43.395673,599.9,0.0346,-0.0053,0.9719
2025-05-09 12:47:43.597789,626.1,0.038,-0.009,0.9724
2025-05-09 12:47:43.598183,626.1,0.038,-0.009,0.9724
2025-05-09 12:47:43.696877,626.1,0.0341,-0.0234,0.9746
2025-05-09 12:47:43.697190,626.1,0.0341,-0.0234,0.9746
2025-05-09 12:47:44.196283,626.1,0.0356,-0.0114,0.9709
2025-05-09 12:47:44.196612,626.1,0.0356,-0.0114,0.9709
2025-05-09 12:47:44.422435,626.1,0.0356,-0.0114,0.9709
2025-05-09 12:47:44.662916,652.3,0.04,-0.0056,0.9624
2025-05-09 12:47:45.096404,626.1,0.0375,-0.0075,0.9721
2025-05-09 12:47:45.096950,626.1,0.0375,-0.0075,0.9721
2025-05-09 12:47:45.196452,613.0,0.0341,-0.008,0.9719
2025-05-09 12:47:45.196720,613.0,0.0341,-0.008,0.9719
2025-05-09 12:47:45.695919,613.0,0.0405,-0.0175,0.9807
2025-05-09 12:47:45.696349,613.0,0.0405,-0.0175,0.9807
2025-05-09 12:47:45.884699,613.0,0.0368,-0.0083,0.9675
2025-05-09 12:47:45.885143,613.0,0.0368,-0.0083,0.9675
2025-05-09 12:47:45.895837,626.1,0.0336,-0.0158,0.9814
2025-05-09 12:47:45.896105,626.1,0.0336,-0.0158,0.9814
2025-05-09 12:47:46.096143,599.9,0.0385,-0.0026,0.9763
2025-05-09 12:47:46.097007,586.8,0.03,-0.0104,0.977
2025-05-09 12:47:46.097531,586.8,0.03,-0.0104,0.977
2025-05-09 12:47:46.325246,626.1,0.0729,-0.0134,0.9479
2025-05-09 12:47:46.399270,626.1,0.0729,-0.0134,0.9479
2025-05-09 12:47:46.638191,573.6,0.0334,-0.0144,0.9731
2025-05-09 12:47:46.638426,573.6,0.0334,-0.0144,0.9731
2025-05-09 12:47:46.945560,586.8,0.0363,-0.009,0.9707
2025-05-09 12:47:46.945956,586.8,0.0363,-0.009,0.9707
2025-05-09 12:47:46.998539,573.6,0.0402,-0.0119,0.9704
2025-05-09 12:47:46.998719,573.6,0.0402,-0.0119,0.9704
2025-05-09 12:47:47.595818,613.0,0.0339,-0.0124,0.9682
2025-05-09 12:47:47.596090,613.0,0.0339,-0.0124,0.9682
2025-05-09 12:47:47.897160,586.8,0.0366,-0.0102,0.9665
2025-05-09 12:47:47.897636,586.8,0.0366,-0.0102,0.9665
2025-05-09 12:47:48.095659,626.1,0.0375,-0.0129,0.9748
2025-05-09 12:47:48.096007,626.1,0.0375,-0.0129,0.9748
2025-05-09 12:47:48.438557,613.0,0.038,-0.0136,0.9594
2025-05-09 12:47:48.438682,613.0,0.038,-0.0136,0.9594
2025-05-09 12:47:48.495355,586.8,0.0295,-0.0146,0.9665
2025-05-09 12:47:48.495549,586.8,0.0295,-0.0146,0.9665
2025-05-09 12:47:48.711661,586.8,0.0336,-0.0197,0.9685
2025-05-09 12:47:49.045353,613.0,0.0327,-0.0102,0.975
2025-05-09 12:47:49.046047,613.0,0.0327,-0.0102,0.975
2025-05-09 12:47:49.389151,626.1,0.0275,-0.0134,0.9968
2025-05-09 12:47:49.389274,626.1,0.0275,-0.0134,0.9968
2025-05-09 12:47:50.285899,652.3,0.0314,-0.0146,0.977
2025-05-09 12:47:50.286161,652.3,0.0314,-0.0146,0.977
2025-05-09 12:47:50.891082,626.1,0.0312,-0.0075,0.9736
2025-05-09 12:47:50.891469,626.1,0.0312,-0.0075,0.9736
2025-05-09 12:47:51.196091,639.2,0.0397,-0.0166,0.9758
2025-05-09 12:47:51.196650,639.2,0.0397,-0.0166,0.9758
2025-05-09 12:47:51.398004,599.9,0.0327,-0.0078,0.9628
2025-05-09 12:47:51.398351,599.9,0.0327,-0.0078,0.9628
2025-05-09 12:47:51.745287,626.1,0.0373,0.0007,0.9675
2025-05-09 12:47:51.745847,626.1,0.0373,0.0007,0.9675
2025-05-09 12:47:51.796401,599.9,0.0412,-0.0107,0.9631
2025-05-09 12:47:51.796681,599.9,0.0412,-0.0107,0.9631
2025-05-09 12:47:51.989608,613.0,0.0329,-0.0134,0.9746
2025-05-09 12:47:51.989945,613.0,0.0329,-0.0134,0.9746
2025-05-09 12:47:52.197714,652.3,0.0417,-0.0119,0.9768
2025-05-09 12:47:52.197891,652.3,0.0417,-0.0119,0.9768
2025-05-09 12:47:52.239640,652.3,0.0417,-0.0119,0.9768
2025-05-09 12:47:52.239926,652.3,0.0417,-0.0119,0.9768
2025-05-09 12:47:52.295099,639.2,0.039,-0.0134,0.967
2025-05-09 12:47:52.295498,639.2,0.039,-0.0134,0.967
2025-05-09 12:47:52.395332,599.9,0.0388,-0.0056,0.9704
2025-05-09 12:47:52.395703,599.9,0.0388,-0.0056,0.9704
2025-05-09 12:47:52.777151,560.5,0.0417,-0.0068,0.9704
2025-05-09 12:47:52.777419,560.5,0.0417,-0.0068,0.9704
2025-05-09 12:47:52.795577,613.0,0.0371,-0.0109,0.9724
2025-05-09 12:47:52.795937,613.0,0.0371,-0.0109,0.9724
2025-05-09 12:47:53.195652,599.9,0.0388,-0.0129,0.9748
2025-05-09 12:47:53.196031,599.9,0.0388,-0.0129,0.9748
2025-05-09 12:47:53.608124,626.1,0.0402,-0.0085,0.9697
2025-05-09 12:47:53.877243,613.0,0.0368,-0.0168,0.968
2025-05-09 12:47:53.886310,613.0,0.0368,-0.0168,0.968
2025-05-09 12:47:53.886499,613.0,0.0368,-0.0168,0.968
2025-05-09 12:47:54.396231,613.0,0.0432,-0.0117,0.9677
2025-05-09 12:47:54.396401,613.0,0.0432,-0.0117,0.9677
2025-05-09 12:47:54.486317,613.0,0.0432,-0.0117,0.9677
2025-05-09 12:47:54.486676,613.0,0.0432,-0.0117,0.9677
2025-05-09 12:47:54.496891,573.6,0.0395,-0.0175,0.9663
2025-05-09 12:47:54.497315,573.6,0.0395,-0.0175,0.9663
2025-05-09 12:47:54.697734,613.0,0.0358,-0.0097,0.9716
2025-05-09 12:47:54.698375,613.0,0.0358,-0.0097,0.9716
2025-05-09 12:47:55.095408,626.1,0.038,-0.009,0.9658
2025-05-09 12:47:55.095992,626.1,0.038,-0.009,0.9658
2025-05-09 12:47:55.290295,613.0,0.0371,-0.0153,0.9665
2025-05-09 12:47:55.290894,613.0,0.0371,-0.0153,0.9665
2025-05-09 12:47:55.295594,599.9,0.0322,-0.0166,0.9697
2025-05-09 12:47:55.296214,599.9,0.0322,-0.0166,0.9697
2025-05-09 12:47:55.597603,626.1,0.0422,-0.0083,0.9633
2025-05-09 12:47:55.597987,626.1,0.0422,-0.0083,0.9633
2025-05-09 12:47:55.697515,626.1,0.0339,-0.0153,0.9729
2025-05-09 12:47:55.698087,626.1,0.0339,-0.0153,0.9729
2025-05-09 12:47:56.195832,652.3,0.0461,0.0122,0.9506
2025-05-09 12:47:56.227781,613.0,0.0349,-0.0083,0.965
2025-05-09 12:47:56.841860,665.4,0.0366,-0.0163,0.9719
2025-05-09 12:47:56.842257,665.4,0.0366,-0.0163,0.9719
2025-05-09 12:47:57.188990,639.2,0.04,-0.0119,0.9782
2025-05-09 12:47:57.189349,639.2,0.04,-0.0119,0.9782
2025-05-09 12:47:57.463773,639.2,0.0336,-0.0153,0.9633
2025-05-09 12:47:57.693720,599.9,0.0397,-0.0048,0.9707
2025-05-09 12:47:57.694211,613.0,0.0378,-0.0073,0.9763
2025-05-09 12:47:57.694660,613.0,0.0378,-0.0073,0.9763
2025-05-09 12:47:57.795822,626.1,0.0383,-0.0146,0.9726
2025-05-09 12:47:57.796139,626.1,0.0383,-0.0146,0.9726
2025-05-09 12:47:58.345079,613.0,0.0434,-0.0168,0.9704
2025-05-09 12:47:58.345337,613.0,0.0434,-0.0168,0.9704
2025-05-09 12:47:58.888908,626.1,0.041,-0.0053,0.9658
2025-05-09 12:47:58.889360,626.1,0.041,-0.0053,0.9658
2025-05-09 12:47:58.986429,639.2,0.0393,-0.0192,0.979
2025-05-09 12:47:58.986896,639.2,0.0393,-0.0192,0.979
2025-05-09 12:47:59.584635,586.8,0.0407,-0.0102,0.9655
2025-05-09 12:47:59.585266,586.8,0.0407,-0.0102,0.9655
2025-05-09 12:47:59.896563,639.2,0.0319,-0.0129,0.9545
2025-05-09 12:47:59.896941,639.2,0.0319,-0.0129,0.9545
2025-05-09 12:48:01.007890,652.3,0.0385,-0.0178,0.9604
2025-05-09 12:48:01.294428,626.1,0.0366,-0.0109,0.9855
2025-05-09 12:48:01.294939,626.1,0.0366,-0.0109,0.9855
2025-05-09 12:48:01.395383,613.0,0.0368,-0.0104,0.9631
2025-05-09 12:48:01.396045,613.0,0.0368,-0.0104,0.9631
2025-05-09 12:48:01.647884,626.1,0.0397,-0.0166,0.9675
2025-05-09 12:48:01.696286,678.5,0.0297,-0.01,0.9755
2025-05-09 12:48:01.696618,678.5,0.0297,-0.01,0.9755
2025-05-09 12:48:02.195396,626.1,0.0451,-0.0122,0.966
2025-05-09 12:48:02.195705,626.1,0.0451,-0.0122,0.966
2025-05-09 12:48:02.242361,626.1,0.0451,-0.0122,0.966
2025-05-09 12:48:02.242621,626.1,0.0451,-0.0122,0.966
2025-05-09 12:48:03.395775,639.2,0.0366,-0.01,0.9772
2025-05-09 12:48:03.396013,639.2,0.0366,-0.01,0.9772
2025-05-09 12:48:03.567958,599.9,0.0363,-0.0073,0.9768
2025-05-09 12:48:03.584762,599.9,0.0363,-0.0073,0.9768
2025-05-09 12:48:03.585145,599.9,0.0363,-0.0073,0.9768
2025-05-09 12:48:03.594414,626.1,0.0344,-0.0173,0.9865
2025-05-09 12:48:03.594721,626.1,0.0344,-0.0173,0.9865
2025-05-09 12:48:03.980674,613.0,0.0375,-0.0126,0.9677
2025-05-09 12:48:04.386622,599.9,0.0361,-0.0156,0.9619
2025-05-09 12:48:04.386962,599.9,0.0361,-0.0156,0.9619
2025-05-09 12:48:04.442085,599.9,0.0375,-0.0146,0.968
2025-05-09 12:48:04.442435,599.9,0.0375,-0.0146,0.968
2025-05-09 12:48:04.537610,626.1,0.0354,-0.0102,0.979
2025-05-09 12:48:04.537965,626.1,0.0354,-0.0102,0.979
2025-05-09 12:48:04.597056,626.1,0.0346,-0.0075,0.9729
2025-05-09 12:48:04.597591,626.1,0.0346,-0.0075,0.9729
2025-05-09 12:48:04.681151,626.1,0.0346,-0.0075,0.9729
2025-05-09 12:48:04.681353,626.1,0.0346,-0.0075,0.9729
2025-05-09 12:48:04.837438,613.0,0.0307,-0.0097,0.9694
2025-05-09 12:48:04.838300,613.0,0.0307,-0.0097,0.9694
2025-05-09 12:48:04.838679,613.0,0.0307,-0.0097,0.9694
2025-05-09 12:48:04.982092,613.0,0.0336,-0.0051,0.9567
2025-05-09 12:48:04.982478,613.0,0.0336,-0.0051,0.9567
2025-05-09 12:48:05.281188,639.2,0.0339,-0.0183,0.9777
2025-05-09 12:48:05.281614,639.2,0.0339,-0.0183,0.9777
2025-05-09 12:48:05.295690,613.0,0.0361,-0.0114,0.9772
2025-05-09 12:48:05.296059,613.0,0.0361,-0.0114,0.9772
2025-05-09 12:48:05.802063,613.0,0.04,-0.0209,0.976
2025-05-09 12:48:05.897431,599.9,0.0339,-0.0063,0.9616
2025-05-09 12:48:05.897730,599.9,0.0339,-0.0063,0.9616
2025-05-09 12:48:05.938089,599.9,0.0339,-0.0063,0.9616
2025-05-09 12:48:05.938618,599.9,0.0339,-0.0063,0.9616
2025-05-09 12:48:06.197295,639.2,0.0341,-0.007,0.9675
2025-05-09 12:48:06.197619,639.2,0.0341,-0.007,0.9675
2025-05-09 12:48:06.440286,613.0,0.0371,-0.0075,0.9716
2025-05-09 12:48:06.440628,613.0,0.0371,-0.0075,0.9716
2025-05-09 12:48:06.596945,573.6,0.0383,-0.0131,0.9748
2025-05-09 12:48:06.615724,573.6,0.0341,-0.0173,0.968
2025-05-09 12:48:06.697085,626.1,0.0375,-0.0048,0.966
2025-05-09 12:48:06.697950,626.1,0.0375,-0.0048,0.966
2025-05-09 12:48:07.065710,626.1,0.0336,-0.0068,0.9672
2025-05-09 12:48:07.081820,613.0,0.0405,-0.0092,0.9702
2025-05-09 12:48:07.082419,613.0,0.0405,-0.0092,0.9702
2025-05-09 12:48:07.096331,639.2,0.0349,-0.0126,0.9675
2025-05-09 12:48:07.096727,639.2,0.0349,-0.0126,0.9675
2025-05-09 12:48:07.336964,639.2,0.0383,-0.0136,0.9821
2025-05-09 12:48:07.337163,639.2,0.0383,-0.0136,0.9821
2025-05-09 12:48:07.535967,626.1,0.0383,-0.0141,0.9753
2025-05-09 12:48:07.536291,626.1,0.0383,-0.0141,0.9753
2025-05-09 12:48:07.681981,613.0,0.0319,-0.0144,0.976
2025-05-09 12:48:07.682300,613.0,0.0319,-0.0144,0.976
2025-05-09 12:48:07.894680,626.1,0.0432,-0.0019,0.9685
2025-05-09 12:48:07.895046,626.1,0.0432,-0.0019,0.9685
2025-05-09 12:48:07.973298,626.1,0.0432,-0.0019,0.9685
2025-05-09 12:48:08.343745,613.0,0.0339,-0.0153,0.9682
2025-05-09 12:48:08.344103,613.0,0.0339,-0.0153,0.9682
2025-05-09 12:48:08.443116,599.9,0.0393,-0.0151,0.9667
2025-05-09 12:48:08.443319,599.9,0.0393,-0.0151,0.9667
2025-05-09 12:48:08.509475,599.9,0.0393,-0.0151,0.9667
2025-05-09 12:48:08.695597,626.1,0.0395,-0.0126,0.9704
2025-05-09 12:48:08.695819,626.1,0.0395,-0.0126,0.9704
2025-05-09 12:48:08.794353,599.9,0.0363,-0.0104,0.9743
2025-05-09 12:48:08.794564,599.9,0.0363,-0.0104,0.9743
2025-05-09 12:48:09.557046,586.8,0.0358,-0.007,0.9677
2025-05-09 12:48:09.696304,626.1,0.0356,-0.0136,0.9743
2025-05-09 12:48:09.696941,626.1,0.0356,-0.0136,0.9743
2025-05-09 12:48:09.736782,626.1,0.0356,-0.0136,0.9743
2025-05-09 12:48:09.737277,626.1,0.0356,-0.0136,0.9743
2025-05-09 12:48:09.995361,599.9,0.0466,-0.0124,0.9699
2025-05-09 12:48:09.996130,599.9,0.0466,-0.0124,0.9699
2025-05-09 12:48:10.195242,652.3,0.0339,-0.0056,0.9726
2025-05-09 12:48:10.195682,652.3,0.0339,-0.0056,0.9726
2025-05-09 12:48:10.394888,652.3,0.0393,-0.0075,0.967
2025-05-09 12:48:10.395207,652.3,0.0393,-0.0075,0.967
2025-05-09 12:48:10.444338,652.3,0.0393,-0.0075,0.967
2025-05-09 12:48:10.444514,652.3,0.0393,-0.0075,0.967
2025-05-09 12:48:10.534668,613.0,0.0385,-0.0114,0.9816
2025-05-09 12:48:11.344920,613.0,0.0361,-0.01,0.9716
2025-05-09 12:48:11.345480,613.0,0.0361,-0.01,0.9716
2025-05-09 12:48:11.457930,613.0,0.0385,-0.0144,0.9704
2025-05-09 12:48:11.497723,626.1,0.0358,-0.0187,0.9711
2025-05-09 12:48:11.498231,626.1,0.0358,-0.0187,0.9711
2025-05-09 12:48:11.611137,652.3,0.0402,-0.0185,0.9714
2025-05-09 12:48:11.794712,652.3,0.0419,-0.0126,0.9714
2025-05-09 12:48:11.795220,652.3,0.0419,-0.0126,0.9714
2025-05-09 12:48:13.015225,678.5,0.0361,0.0017,0.9741
2025-05-09 12:48:13.081212,678.5,0.0361,0.0017,0.9741
2025-05-09 12:48:13.081703,678.5,0.0361,0.0017,0.9741
2025-05-09 12:48:13.438505,626.1,0.0412,-0.0107,0.9672
2025-05-09 12:48:13.438811,626.1,0.0412,-0.0107,0.9672
2025-05-09 12:48:13.982371,652.3,0.0329,-0.0222,0.9655
2025-05-09 12:48:13.982703,652.3,0.0329,-0.0222,0.9655
2025-05-09 12:48:14.441624,652.3,0.0349,-0.0068,0.9863
2025-05-09 12:48:14.441866,652.3,0.0349,-0.0068,0.9863
2025-05-09 12:48:14.793760,626.1,0.0349,-0.0114,0.9692
2025-05-09 12:48:14.794646,599.9,0.0424,-0.0139,0.956
2025-05-09 12:48:14.794974,599.9,0.0424,-0.0139,0.956
2025-05-09 12:48:14.986573,599.9,0.0424,-0.0139,0.956
2025-05-09 12:48:15.297477,626.1,0.0339,-0.0046,0.9638
2025-05-09 12:48:15.297846,626.1,0.0339,-0.0046,0.9638
2025-05-09 12:48:15.641170,613.0,0.0393,-0.0158,0.9758
2025-05-09 12:48:15.641511,613.0,0.0393,-0.0158,0.9758
2025-05-09 12:48:16.009566,613.0,0.0397,-0.0095,0.9653
2025-05-09 12:48:16.421064,639.2,0.0439,-0.0107,0.9655
2025-05-09 12:48:16.674699,613.0,0.0317,-0.0129,0.9736
2025-05-09 12:48:16.711522,639.2,0.0358,-0.0097,0.9685
2025-05-09 12:48:17.096210,678.5,0.0354,-0.0144,0.9575
2025-05-09 12:48:17.096781,678.5,0.0354,-0.0144,0.9575
2025-05-09 12:48:17.157023,678.5,0.0354,-0.0144,0.9575
2025-05-09 12:48:17.387798,665.4,0.0437,-0.0112,0.9719
2025-05-09 12:48:17.388021,665.4,0.0437,-0.0112,0.9719
2025-05-09 12:48:17.438194,639.2,0.019,-0.0256,0.9541
2025-05-09 12:48:17.990778,613.0,0.0346,-0.008,0.9667
2025-05-09 12:48:17.991163,613.0,0.0346,-0.008,0.9667
2025-05-09 12:48:18.138312,665.4,0.0322,-0.007,0.9746
2025-05-09 12:48:18.138761,665.4,0.0322,-0.007,0.9746
2025-05-09 12:48:18.695555,639.2,0.039,-0.0124,0.968
2025-05-09 12:48:18.696147,639.2,0.039,-0.0124,0.968
2025-05-09 12:48:18.787092,639.2,0.039,-0.0124,0.968
2025-05-09 12:48:18.787616,639.2,0.039,-0.0124,0.968
2025-05-09 12:48:19.394474,599.9,0.0375,-0.0114,0.9709
2025-05-09 12:48:19.394742,599.9,0.0375,-0.0114,0.9709
2025-05-09 12:48:19.897332,613.0,0.0419,-0.0114,0.9682
2025-05-09 12:48:19.897666,613.0,0.0419,-0.0114,0.9682
2025-05-09 12:48:20.005115,599.9,0.0378,-0.0117,0.9704
2025-05-09 12:48:20.517390,613.0,0.0336,-0.0122,0.9719
2025-05-09 12:48:20.545177,613.0,0.0336,-0.0122,0.9719
2025-05-09 12:48:20.545602,613.0,0.0336,-0.0122,0.9719
2025-05-09 12:48:21.396582,573.6,0.0327,-0.0085,0.9775
2025-05-09 12:48:21.396956,573.6,0.0327,-0.0085,0.9775
2025-05-09 12:48:22.009431,613.0,0.0444,-0.0249,1.0041
2025-05-09 12:48:22.295875,599.9,0.0388,-0.0085,0.9711
2025-05-09 12:48:22.296387,599.9,0.0388,-0.0085,0.9711
2025-05-09 12:48:22.954212,613.0,0.0378,-0.0144,0.9687
2025-05-09 12:48:22.992404,613.0,0.0378,-0.0144,0.9687
2025-05-09 12:48:23.488376,586.8,0.0378,-0.0166,0.9648
2025-05-09 12:48:23.488573,586.8,0.0378,-0.0166,0.9648
2025-05-09 12:48:23.795207,626.1,0.0324,-0.0129,0.9582
2025-05-09 12:48:23.795427,626.1,0.0324,-0.0129,0.9582
2025-05-09 12:48:23.881176,626.1,0.0324,-0.0129,0.9582
2025-05-09 12:48:23.881514,626.1,0.0324,-0.0129,0.9582
2025-05-09 12:48:24.738479,599.9,0.0358,-0.0087,0.9724
2025-05-09 12:48:24.738941,599.9,0.0358,-0.0087,0.9724
2025-05-09 12:48:24.781669,599.9,0.0358,-0.0087,0.9724
2025-05-09 12:48:24.781948,599.9,0.0358,-0.0087,0.9724
2025-05-09 12:48:25.639057,599.9,0.0358,-0.0156,0.9807
2025-05-09 12:48:25.639400,599.9,0.0358,-0.0156,0.9807
2025-05-09 12:48:25.682577,599.9,0.0358,-0.0156,0.9807
2025-05-09 12:48:25.682797,599.9,0.0358,-0.0156,0.9807
2025-05-09 12:48:26.189091,586.8,0.0405,-0.008,0.9697
2025-05-09 12:48:26.189446,586.8,0.0405,-0.008,0.9697
2025-05-09 12:48:26.197433,613.0,0.0366,-0.0156,0.9763
2025-05-09 12:48:26.197750,613.0,0.0366,-0.0156,0.9763
2025-05-09 12:48:26.436718,586.8,0.0417,-0.0139,0.9746
2025-05-09 12:48:26.436919,586.8,0.0417,-0.0139,0.9746
2025-05-09 12:48:26.789015,613.0,0.0393,-0.0126,0.9609
2025-05-09 12:48:28.378071,626.1,0.0283,-0.0163,0.9726
2025-05-09 12:48:28.894439,599.9,0.0322,0.0034,0.9377
2025-05-09 12:48:30.138740,573.6,0.0297,-0.0134,0.9687
2025-05-09 12:48:30.139277,573.6,0.0297,-0.0134,0.9687
2025-05-09 12:48:30.461003,613.0,0.0424,-0.0144,0.9636
2025-05-09 12:48:30.786441,613.0,0.0312,-0.0087,0.9633
2025-05-09 12:48:30.786752,613.0,0.0312,-0.0087,0.9633
2025-05-09 12:48:33.494130,586.8,0.041,-0.0112,0.9643
2025-05-09 12:48:33.494427,586.8,0.041,-0.0112,0.9643
2025-05-09 12:48:33.794689,639.2,0.0385,-0.0053,0.9711
2025-05-09 12:48:34.027875,639.2,0.0385,-0.0073,0.9663
2025-05-09 12:48:34.044494,613.0,0.0424,-0.0107,0.9645
2025-05-09 12:48:34.044727,613.0,0.0424,-0.0107,0.9645
2025-05-09 12:48:34.742839,613.0,0.0336,-0.0151,0.957
2025-05-09 12:48:34.743433,613.0,0.0336,-0.0151,0.957
2025-05-09 12:48:34.785530,613.0,0.0336,-0.0151,0.957
2025-05-09 12:48:34.785748,613.0,0.0336,-0.0151,0.957
2025-05-09 12:48:35.195480,626.1,0.0419,-0.009,0.9672
2025-05-09 12:48:35.196107,626.1,0.0419,-0.009,0.9672
2025-05-09 12:48:35.263328,626.1,0.0419,-0.009,0.9672
2025-05-09 12:48:35.495799,626.1,0.0373,-0.0131,0.9694
2025-05-09 12:48:35.496347,626.1,0.0373,-0.0131,0.9694
2025-05-09 12:48:36.396343,613.0,0.0361,-0.0068,0.9724
2025-05-09 12:48:36.396683,613.0,0.0361,-0.0068,0.9724
2025-05-09 12:48:36.440930,613.0,0.0361,-0.0068,0.9724
2025-05-09 12:48:36.441357,613.0,0.0361,-0.0068,0.9724
2025-05-09 12:48:38.244704,613.0,0.0419,-0.0139,0.9685
2025-05-09 12:48:38.245116,613.0,0.0419,-0.0139,0.9685
2025-05-09 12:48:39.479913,626.1,0.0354,-0.0231,0.9685
2025-05-09 12:48:39.480279,626.1,0.0354,-0.0231,0.9685
2025-05-09 12:48:39.496383,626.1,0.0312,-0.0141,0.9711
2025-05-09 12:48:39.497011,626.1,0.0312,-0.0141,0.9711
2025-05-09 12:48:40.039579,599.9,0.0361,-0.0161,0.9719
2025-05-09 12:48:40.039871,599.9,0.0361,-0.0161,0.9719
2025-05-09 12:48:40.083499,599.9,0.0361,-0.0161,0.9719
2025-05-09 12:48:40.083802,599.9,0.0361,-0.0161,0.9719
2025-05-09 12:48:41.795639,613.0,0.0327,-0.0153,0.9738
2025-05-09 12:48:41.796179,613.0,0.0327,-0.0153,0.9738
2025-05-09 12:48:42.117958,613.0,0.0327,-0.0153,0.9738
2025-05-09 12:48:42.142426,613.0,0.0402,-0.0134,0.968
2025-05-09 12:48:42.142611,613.0,0.0402,-0.0134,0.968
2025-05-09 12:48:42.744355,652.3,0.0334,-0.01,0.9711
2025-05-09 12:48:42.744739,652.3,0.0334,-0.01,0.9711
2025-05-09 12:48:43.096087,599.9,0.0363,-0.0122,0.9636
2025-05-09 12:48:43.097282,599.9,0.0446,-0.0134,0.9704
2025-05-09 12:48:43.097460,599.9,0.0446,-0.0134,0.9704
2025-05-09 12:48:43.689966,599.9,0.0402,-0.0092,0.9677
2025-05-09 12:48:43.690510,599.9,0.0402,-0.0092,0.9677
2025-05-09 12:48:43.806002,599.9,0.0366,-0.0144,0.9755
2025-05-09 12:48:43.841349,613.0,0.0368,-0.0173,0.9572
2025-05-09 12:48:43.841892,613.0,0.0368,-0.0173,0.9572
2025-05-09 12:48:44.197297,626.1,0.04,-0.0126,0.9665
2025-05-09 12:48:44.197654,626.1,0.04,-0.0126,0.9665
2025-05-09 12:48:44.313751,626.1,0.0383,-0.0114,0.9711
2025-05-09 12:48:44.541414,613.0,0.0349,-0.0205,0.977
2025-05-09 12:48:44.541736,613.0,0.0349,-0.0205,0.977
2025-05-09 12:48:44.894800,613.0,0.0334,-0.01,0.9667
2025-05-09 12:48:45.098609,626.1,0.0358,-0.0136,0.9704
2025-05-09 12:48:45.394106,599.9,0.0363,-0.0153,0.9792
2025-05-09 12:48:45.394356,599.9,0.0363,-0.0153,0.9792
2025-05-09 12:48:46.005688,626.1,0.0368,-0.0097,0.9733
2025-05-09 12:48:46.384965,560.5,0.041,-0.0109,0.9738
2025-05-09 12:48:46.385186,560.5,0.041,-0.0109,0.9738
2025-05-09 12:48:47.323713,626.1,0.0327,-0.008,0.9541
2025-05-09 12:48:48.696958,626.1,0.0332,-0.0219,0.9726
2025-05-09 12:48:48.697312,626.1,0.0332,-0.0219,0.9726
2025-05-09 12:48:48.741374,626.1,0.0332,-0.0219,0.9726
2025-05-09 12:48:48.741725,626.1,0.0332,-0.0219,0.9726
2025-05-09 12:48:49.342715,573.6,0.0395,-0.0087,0.9924
2025-05-09 12:48:49.343256,573.6,0.0395,-0.0087,0.9924
2025-05-09 12:48:49.636106,573.6,0.0273,-0.0097,0.9787
2025-05-09 12:48:49.636326,573.6,0.0273,-0.0097,0.9787
2025-05-09 12:48:49.936162,599.9,0.0366,-0.0124,0.9562
2025-05-09 12:48:49.936321,599.9,0.0366,-0.0124,0.9562
2025-05-09 12:48:50.296105,613.0,0.0292,-0.0083,0.9626
2025-05-09 12:48:50.297103,573.6,0.0441,-0.0153,0.978
2025-05-09 12:48:50.297322,573.6,0.0441,-0.0153,0.978
2025-05-09 12:48:50.496698,613.0,0.0393,-0.0129,0.9655
2025-05-09 12:48:50.497031,613.0,0.0393,-0.0129,0.9655
2025-05-09 12:48:51.138104,560.5,0.0383,-0.0046,0.9655
2025-05-09 12:48:51.138465,560.5,0.0383,-0.0046,0.9655
2025-05-09 12:48:52.042411,599.9,0.0366,-0.0136,0.9633
2025-05-09 12:48:52.042681,599.9,0.0366,-0.0136,0.9633
2025-05-09 12:48:52.345754,599.9,0.0266,-0.0075,0.968
2025-05-09 12:48:52.345938,599.9,0.0266,-0.0075,0.968
2025-05-09 12:48:52.693667,613.0,0.0417,-0.0058,0.9655
2025-05-09 12:48:52.694218,613.0,0.0417,-0.0058,0.9655
2025-05-09 12:48:52.960191,547.4,0.0327,-0.0114,0.976
2025-05-09 12:48:53.289388,573.6,0.0317,-0.0107,0.9733
2025-05-09 12:48:53.289823,573.6,0.0317,-0.0107,0.9733
2025-05-09 12:48:53.794877,573.6,0.0378,-0.0112,0.9768
2025-05-09 12:48:53.795673,599.9,0.0393,-0.0063,0.9707
2025-05-09 12:48:53.796033,599.9,0.0393,-0.0063,0.9707
2025-05-09 12:48:54.996769,573.6,0.0351,-0.007,0.9643
2025-05-09 12:48:54.997187,573.6,0.0351,-0.007,0.9643
2025-05-09 12:48:55.385564,573.6,0.0412,-0.0187,0.9792
2025-05-09 12:48:55.385905,573.6,0.0412,-0.0187,0.9792
2025-05-09 12:48:55.996000,560.5,0.0393,-0.0112,0.9663
2025-05-09 12:48:55.996295,560.5,0.0393,-0.0112,0.9663
2025-05-09 12:48:56.241646,573.6,0.0346,-0.0117,0.967
2025-05-09 12:48:56.241907,573.6,0.0346,-0.0117,0.967
2025-05-09 12:48:56.284176,573.6,0.0346,-0.0117,0.967
2025-05-09 12:48:56.284657,573.6,0.0346,-0.0117,0.967
2025-05-09 12:48:56.539561,573.6,0.038,-0.008,0.9619
2025-05-09 12:48:56.539984,573.6,0.038,-0.008,0.9619
2025-05-09 12:48:56.797684,586.8,0.0339,-0.0141,0.9709
2025-05-09 12:48:56.797945,586.8,0.0339,-0.0141,0.9709
2025-05-09 12:48:56.857339,586.8,0.0339,-0.0141,0.9709
2025-05-09 12:48:57.461255,586.8,0.0434,-0.0114,0.9682
2025-05-09 12:48:57.482867,586.8,0.0434,-0.0114,0.9682
2025-05-09 12:48:57.483203,586.8,0.0434,-0.0114,0.9682
2025-05-09 12:48:57.696088,586.8,0.0363,-0.0153,0.9719
2025-05-09 12:48:57.696301,586.8,0.0363,-0.0153,0.9719
2025-05-09 12:48:58.072318,560.5,0.0341,-0.009,0.9709
2025-05-09 12:48:58.077381,560.5,0.0341,-0.009,0.9709
2025-05-09 12:48:58.077845,560.5,0.0341,-0.009,0.9709
2025-05-09 12:48:58.595943,573.6,0.0412,-0.0161,0.9704
2025-05-09 12:48:58.596373,573.6,0.0412,-0.0161,0.9704
2025-05-09 12:48:58.782324,560.5,0.0385,-0.0104,0.9755
2025-05-09 12:48:58.782761,560.5,0.0385,-0.0104,0.9755
2025-05-09 12:48:59.195076,599.9,0.0393,-0.0222,0.9658
2025-05-09 12:48:59.195727,586.8,0.0368,-0.0078,0.9797
2025-05-09 12:48:59.196185,586.8,0.0368,-0.0078,0.9797
2025-05-09 12:48:59.487494,547.4,0.0305,-0.01,0.9675
2025-05-09 12:48:59.487945,547.4,0.0305,-0.01,0.9675
2025-05-09 12:48:59.496565,534.3,0.041,-0.0056,0.9665
2025-05-09 12:48:59.496931,534.3,0.041,-0.0056,0.9665
2025-05-09 12:48:59.538940,534.3,0.041,-0.0056,0.9665
2025-05-09 12:48:59.539207,534.3,0.041,-0.0056,0.9665
2025-05-09 12:49:00.135997,586.8,0.0334,-0.0139,0.9746
2025-05-09 12:49:00.136338,586.8,0.0334,-0.0139,0.9746
2025-05-09 12:49:00.488530,586.8,0.0346,-0.0153,0.9699
2025-05-09 12:49:00.489041,586.8,0.0346,-0.0153,0.9699
2025-05-09 12:49:01.295736,586.8,0.0393,-0.01,0.9631
2025-05-09 12:49:01.295930,586.8,0.0393,-0.01,0.9631
2025-05-09 12:49:01.342187,586.8,0.0393,-0.01,0.9631
2025-05-09 12:49:01.342588,586.8,0.0393,-0.01,0.9631
2025-05-09 12:49:01.995567,534.3,0.0402,-0.0124,0.9689
2025-05-09 12:49:01.995920,534.3,0.0402,-0.0124,0.9689
2025-05-09 12:49:03.084434,586.8,0.0432,-0.0104,0.9682
2025-05-09 12:49:03.085135,586.8,0.0432,-0.0104,0.9682
2025-05-09 12:49:03.096635,573.6,0.0368,-0.0136,0.9716
2025-05-09 12:49:03.097007,573.6,0.0368,-0.0136,0.9716
2025-05-09 12:49:04.085260,573.6,0.0361,-0.0104,0.9672
2025-05-09 12:49:04.085604,573.6,0.0361,-0.0104,0.9672
2025-05-09 12:49:04.377632,573.6,0.0434,-0.01,0.9606
2025-05-09 12:49:04.377967,573.6,0.0434,-0.01,0.9606
2025-05-09 12:49:04.996605,639.2,0.0324,-0.0012,0.9702
2025-05-09 12:49:04.996929,639.2,0.0324,-0.0012,0.9702
2025-05-09 12:49:05.287119,586.8,0.04,-0.0083,0.9567
2025-05-09 12:49:05.287488,586.8,0.04,-0.0083,0.9567
2025-05-09 12:49:05.535279,586.8,0.0441,-0.0129,0.9521
2025-05-09 12:49:05.535710,586.8,0.0441,-0.0129,0.9521
2025-05-09 12:49:05.580986,586.8,0.0441,-0.0129,0.9521
2025-05-09 12:49:05.581230,586.8,0.0441,-0.0129,0.9521
2025-05-09 12:49:06.168413,586.8,0.0366,-0.0158,0.9814
2025-05-09 12:49:06.193495,599.9,0.0339,-0.0073,0.9677
2025-05-09 12:49:06.194212,599.9,0.0339,-0.0073,0.9677
2025-05-09 12:49:07.376831,599.9,0.0385,-0.0156,0.9682
2025-05-09 12:49:07.377035,599.9,0.0385,-0.0156,0.9682
2025-05-09 12:49:08.539848,613.0,0.0297,-0.0095,0.9694
2025-05-09 12:49:08.540054,613.0,0.0297,-0.0095,0.9694
2025-05-09 12:49:09.187203,573.6,0.039,-0.017,0.9743
2025-05-09 12:49:09.187957,573.6,0.039,-0.017,0.9743
2025-05-09 12:49:10.337538,613.0,0.038,-0.0061,0.9609
2025-05-09 12:49:10.337939,613.0,0.038,-0.0061,0.9609
2025-05-09 12:49:10.625377,599.9,0.0471,-0.0109,0.9611
2025-05-09 12:49:10.705702,586.8,0.0385,-0.017,0.9628
2025-05-09 12:49:10.943751,599.9,0.0349,-0.0126,0.967
2025-05-09 12:49:10.944133,599.9,0.0349,-0.0126,0.967
2025-05-09 12:49:11.038338,626.1,0.0351,-0.0087,0.9738
2025-05-09 12:49:11.038827,626.1,0.0351,-0.0087,0.9738
2025-05-09 12:49:11.243496,613.0,0.0307,-0.0134,0.965
2025-05-09 12:49:11.243849,613.0,0.0307,-0.0134,0.965
2025-05-09 12:49:11.841189,626.1,0.038,-0.0034,0.9487
2025-05-09 12:49:11.841457,626.1,0.038,-0.0034,0.9487
2025-05-09 12:49:11.887320,626.1,0.038,-0.0034,0.9487
2025-05-09 12:49:11.887758,626.1,0.038,-0.0034,0.9487
2025-05-09 12:49:12.705004,613.0,0.0366,-0.01,0.9726
2025-05-09 12:49:13.996935,599.9,0.0368,-0.0126,0.9731
2025-05-09 12:49:13.997115,599.9,0.0368,-0.0126,0.9731
2025-05-09 12:49:14.244136,573.6,0.0432,-0.0122,0.9614
2025-05-09 12:49:14.244535,573.6,0.0432,-0.0122,0.9614
2025-05-09 12:49:14.595832,560.5,0.0405,-0.0139,0.9711
2025-05-09 12:49:14.596212,560.5,0.0405,-0.0139,0.9711
2025-05-09 12:49:14.781958,586.8,0.039,-0.0141,0.9814
2025-05-09 12:49:14.782234,586.8,0.039,-0.0141,0.9814
2025-05-09 12:49:14.803684,599.9,0.0341,-0.0119,0.9836
2025-05-09 12:49:15.097325,613.0,0.0383,-0.008,0.9587
2025-05-09 12:49:15.123389,599.9,0.0327,-0.0134,0.9738
2025-05-09 12:49:15.142919,599.9,0.0327,-0.0134,0.9738
2025-05-09 12:49:15.143285,599.9,0.0327,-0.0134,0.9738
2025-05-09 12:49:16.095698,573.6,0.0417,-0.0134,0.9677
2025-05-09 12:49:16.095911,573.6,0.0417,-0.0134,0.9677
2025-05-09 12:49:17.511542,534.3,0.0354,-0.0158,0.9758
2025-05-09 12:49:18.092163,613.0,0.0424,-0.0075,0.9672
2025-05-09 12:49:18.095454,573.6,0.0483,-0.0388,0.9577
2025-05-09 12:49:18.095812,573.6,0.0483,-0.0388,0.9577
2025-05-09 12:49:18.397401,599.9,0.0317,-0.0146,0.9824
2025-05-09 12:49:18.397971,599.9,0.0317,-0.0146,0.9824
2025-05-09 12:49:18.780451,560.5,0.0341,-0.0126,0.9655
2025-05-09 12:49:18.781018,560.5,0.0341,-0.0126,0.9655
2025-05-09 12:49:19.313485,626.1,0.0334,-0.0126,0.9694
2025-05-09 12:49:19.396271,599.9,0.0417,-0.0126,0.9697
2025-05-09 12:49:19.396731,599.9,0.0417,-0.0126,0.9697
2025-05-09 12:49:19.619822,573.6,0.0329,-0.0107,0.9782
2025-05-09 12:49:19.853811,560.5,0.04,-0.0126,0.9682
2025-05-09 12:49:19.941811,560.5,0.0358,-0.0092,0.9719
2025-05-09 12:49:19.942372,560.5,0.0358,-0.0092,0.9719
2025-05-09 12:49:20.196238,613.0,0.0375,-0.0095,0.9765
2025-05-09 12:49:20.196490,613.0,0.0375,-0.0095,0.9765
2025-05-09 12:49:20.795313,586.8,0.0314,-0.0129,0.968
2025-05-09 12:49:20.795599,586.8,0.0314,-0.0129,0.968
2025-05-09 12:49:20.881666,586.8,0.0314,-0.0129,0.968
2025-05-09 12:49:20.882135,586.8,0.0314,-0.0129,0.968
2025-05-09 12:49:21.393676,586.8,0.0336,-0.0095,0.9665
2025-05-09 12:49:21.393897,586.8,0.0336,-0.0095,0.9665
2025-05-09 12:49:21.482736,586.8,0.0336,-0.0095,0.9665
2025-05-09 12:49:21.482925,586.8,0.0336,-0.0095,0.9665
2025-05-09 12:49:21.993257,573.6,0.0417,-0.0112,0.9702
2025-05-09 12:49:22.096182,613.0,0.0371,-0.0151,0.9697
2025-05-09 12:49:22.096393,613.0,0.0371,-0.0151,0.9697
2025-05-09 12:49:22.293709,573.6,0.0322,-0.0061,0.9726
2025-05-09 12:49:22.294178,573.6,0.0322,-0.0061,0.9726
2025-05-09 12:49:22.393854,599.9,0.0366,-0.0095,0.9685
2025-05-09 12:49:22.394144,599.9,0.0366,-0.0095,0.9685
2025-05-09 12:49:22.595560,599.9,0.0437,-0.0119,0.9687
2025-05-09 12:49:22.595893,599.9,0.0437,-0.0119,0.9687
2025-05-09 12:49:22.640722,599.9,0.0437,-0.0119,0.9687
2025-05-09 12:49:22.640948,599.9,0.0437,-0.0119,0.9687
2025-05-09 12:49:22.979847,599.9,0.0317,-0.0095,0.966
2025-05-09 12:49:22.980171,599.9,0.0317,-0.0095,0.966
2025-05-09 12:49:23.194539,573.6,0.0349,-0.0083,0.9611
2025-05-09 12:49:23.194937,573.6,0.0349,-0.0083,0.9611
2025-05-09 12:49:23.495369,586.8,0.0351,-0.0161,0.9741
2025-05-09 12:49:23.495579,586.8,0.0351,-0.0161,0.9741
2025-05-09 12:49:23.563146,586.8,0.0351,-0.0161,0.9741
2025-05-09 12:49:23.836839,586.8,0.0366,-0.0122,0.9675
2025-05-09 12:49:23.897107,586.8,0.0451,-0.0107,0.965
2025-05-09 12:49:23.897465,586.8,0.0451,-0.0107,0.965
2025-05-09 12:49:24.395859,599.9,0.0363,-0.0166,0.9677
2025-05-09 12:49:24.396229,599.9,0.0363,-0.0166,0.9677
2025-05-09 12:49:24.495425,586.8,0.038,-0.0075,0.968
2025-05-09 12:49:24.495840,586.8,0.038,-0.0075,0.968
2025-05-09 12:49:25.036240,573.6,0.0402,-0.0148,0.9714
2025-05-09 12:49:25.036629,573.6,0.0402,-0.0148,0.9714
2025-05-09 12:49:25.295528,573.6,0.0368,-0.01,0.9645
2025-05-09 12:49:25.296094,573.6,0.0368,-0.01,0.9645
2025-05-09 12:49:25.386037,573.6,0.0368,-0.01,0.9645
2025-05-09 12:49:25.386455,573.6,0.0368,-0.01,0.9645
2025-05-09 12:49:25.596595,613.0,0.0454,-0.0112,0.9702
2025-05-09 12:49:25.597138,613.0,0.0454,-0.0112,0.9702
2025-05-09 12:49:25.687625,613.0,0.0454,-0.0112,0.9702
2025-05-09 12:49:25.688160,613.0,0.0454,-0.0112,0.9702
2025-05-09 12:49:25.988527,586.8,0.0354,-0.0043,0.9726
2025-05-09 12:49:25.988941,586.8,0.0354,-0.0043,0.9726
2025-05-09 12:49:26.283107,599.9,0.0322,-0.0058,0.9694
2025-05-09 12:49:26.283718,599.9,0.0322,-0.0058,0.9694
2025-05-09 12:49:26.495854,573.6,0.0327,-0.01,0.9624
2025-05-09 12:49:26.496349,573.6,0.0327,-0.01,0.9624
2025-05-09 12:49:26.796691,599.9,0.0402,-0.0134,0.966
2025-05-09 12:49:26.796870,599.9,0.0402,-0.0134,0.966
2025-05-09 12:49:26.887237,599.9,0.0402,-0.0134,0.966
2025-05-09 12:49:26.887552,599.9,0.0402,-0.0134,0.966
2025-05-09 12:49:26.896774,573.6,0.0429,-0.0158,0.9643
2025-05-09 12:49:26.896953,573.6,0.0429,-0.0158,0.9643
2025-05-09 12:49:27.189918,573.6,0.0346,-0.01,0.9697
2025-05-09 12:49:27.190140,573.6,0.0346,-0.01,0.9697
2025-05-09 12:49:27.600926,599.9,0.0378,-0.0205,0.9589
2025-05-09 12:49:27.795217,573.6,0.0393,-0.008,0.966
2025-05-09 12:49:27.813872,586.8,0.0363,-0.008,0.9697
2025-05-09 12:49:28.295983,599.9,0.0417,-0.0178,0.9643
2025-05-09 12:49:28.296420,599.9,0.0417,-0.0178,0.9643
2025-05-09 12:49:28.894050,547.4,0.0371,-0.0192,0.9763
2025-05-09 12:49:28.894691,547.4,0.0371,-0.0192,0.9763
2025-05-09 12:49:29.577191,586.8,0.0354,-0.0122,0.9638
2025-05-09 12:49:29.577565,586.8,0.0354,-0.0122,0.9638
2025-05-09 12:49:29.594832,586.8,0.0305,-0.0087,0.9692
2025-05-09 12:49:29.595407,586.8,0.0305,-0.0087,0.9692
2025-05-09 12:49:30.142965,599.9,0.0334,-0.0122,0.9853
2025-05-09 12:49:30.143132,599.9,0.0334,-0.0122,0.9853
2025-05-09 12:49:30.393746,586.8,0.0351,-0.0136,0.9702
2025-05-09 12:49:30.394010,586.8,0.0351,-0.0136,0.9702
2025-05-09 12:49:30.694944,586.8,0.0412,-0.0021,0.9821
2025-05-09 12:49:30.695323,586.8,0.0412,-0.0021,0.9821
2025-05-09 12:49:30.792010,586.8,0.0412,-0.0021,0.9821
2025-05-09 12:49:30.995997,626.1,0.0351,-0.0166,0.9724
2025-05-09 12:49:30.996471,626.1,0.0351,-0.0166,0.9724
2025-05-09 12:49:31.294322,613.0,0.0393,-0.0134,0.9782
2025-05-09 12:49:31.294832,613.0,0.0393,-0.0134,0.9782
2025-05-09 12:49:31.346428,613.0,0.0393,-0.0134,0.9782
2025-05-09 12:49:31.594382,573.6,0.0429,-0.0136,0.9636
2025-05-09 12:49:31.594562,573.6,0.0429,-0.0136,0.9636
2025-05-09 12:49:32.595007,586.8,0.0324,-0.017,0.9746
2025-05-09 12:49:32.595422,586.8,0.0324,-0.017,0.9746
2025-05-09 12:49:33.093509,573.6,0.0405,-0.0109,0.9675
2025-05-09 12:49:33.094215,573.6,0.0405,-0.0109,0.9675
2025-05-09 12:49:33.194714,586.8,0.04,-0.0068,0.9633
2025-05-09 12:49:33.195253,586.8,0.04,-0.0068,0.9633
2025-05-09 12:49:33.414435,599.9,0.039,-0.009,0.9799
2025-05-09 12:49:33.739920,560.5,0.0395,-0.0102,0.9702
2025-05-09 12:49:33.740471,560.5,0.0395,-0.0102,0.9702
2025-05-09 12:49:33.994562,613.0,0.0307,-0.0119,0.9704
2025-05-09 12:49:33.995160,613.0,0.0307,-0.0119,0.9704
2025-05-09 12:49:34.335996,573.6,0.038,-0.0073,0.9628
2025-05-09 12:49:34.336213,573.6,0.038,-0.0073,0.9628
2025-05-09 12:49:34.894644,652.3,0.0354,-0.0058,0.9763
2025-05-09 12:49:34.894936,652.3,0.0354,-0.0058,0.9763
2025-05-09 12:49:35.194740,626.1,0.0302,-0.0107,0.9702
2025-05-09 12:49:35.205280,573.6,0.0402,-0.019,0.9785
2025-05-09 12:49:35.562445,586.8,0.0319,-0.0129,0.9826
2025-05-09 12:49:35.994680,560.5,0.0397,-0.0161,0.9724
2025-05-09 12:49:35.994920,560.5,0.0397,-0.0161,0.9724
2025-05-09 12:49:36.480926,586.8,0.0397,-0.0136,0.9741
2025-05-09 12:49:36.481547,586.8,0.0397,-0.0136,0.9741
2025-05-09 12:49:37.995789,599.9,0.0341,-0.0187,0.9604
2025-05-09 12:49:37.996195,599.9,0.0341,-0.0187,0.9604
2025-05-09 12:49:39.439127,613.0,0.029,-0.009,0.9663
2025-05-09 12:49:39.439681,613.0,0.029,-0.009,0.9663
2025-05-09 12:49:39.711931,613.0,0.041,-0.0144,0.9641
2025-05-09 12:49:40.043184,599.9,0.0334,-0.0104,0.9721
2025-05-09 12:49:40.043363,599.9,0.0334,-0.0104,0.9721
2025-05-09 12:49:40.688005,639.2,0.0385,-0.0112,0.9616
2025-05-09 12:49:40.688470,639.2,0.0385,-0.0112,0.9616
2025-05-09 12:49:41.203576,573.6,0.0383,-0.0112,0.9797
2025-05-09 12:49:42.738587,586.8,0.041,-0.0126,0.9675
2025-05-09 12:49:42.739126,586.8,0.041,-0.0126,0.9675
2025-05-09 12:49:43.694615,586.8,0.0405,-0.0124,0.9628
2025-05-09 12:49:43.694943,586.8,0.0405,-0.0124,0.9628
2025-05-09 12:49:44.021753,573.6,0.0336,-0.0104,0.9609
2025-05-09 12:49:44.035427,599.9,0.0354,-0.0136,0.9641
2025-05-09 12:49:44.035633,599.9,0.0354,-0.0136,0.9641
2025-05-09 12:49:45.183284,586.8,0.0341,-0.0102,0.9685
2025-05-09 12:49:45.183603,586.8,0.0341,-0.0102,0.9685
2025-05-09 12:49:45.493112,573.6,0.0261,-0.0095,0.9821
2025-05-09 12:49:45.493495,573.6,0.0261,-0.0095,0.9821
2025-05-09 12:49:46.183363,586.8,0.0434,-0.0351,0.9448
2025-05-09 12:49:46.183597,586.8,0.0434,-0.0351,0.9448
2025-05-09 12:49:46.384693,573.6,0.0275,-0.0141,0.9711
2025-05-09 12:49:46.384975,573.6,0.0275,-0.0141,0.9711
2025-05-09 12:49:47.537199,534.3,0.04,-0.0161,0.9628
2025-05-09 12:49:47.537546,534.3,0.04,-0.0161,0.9628
2025-05-09 12:49:47.605446,534.3,0.04,-0.0161,0.9628
2025-05-09 12:49:49.294305,613.0,0.0373,-0.0209,0.9716
2025-05-09 12:49:49.294922,613.0,0.0373,-0.0209,0.9716
2025-05-09 12:49:49.621113,586.8,0.0449,-0.0202,0.9592
2025-05-09 12:49:49.959445,547.4,0.0395,-0.008,0.9726
2025-05-09 12:49:50.279667,586.8,0.0361,-0.0187,0.9748
2025-05-09 12:49:50.280050,586.8,0.0361,-0.0187,0.9748
2025-05-09 12:49:51.143569,573.6,0.0344,-0.0041,0.9753
2025-05-09 12:49:51.144343,573.6,0.0344,-0.0041,0.9753
2025-05-09 12:49:51.396111,586.8,0.0302,-0.0126,0.9648
2025-05-09 12:49:51.396503,586.8,0.0302,-0.0126,0.9648
2025-05-09 12:49:51.442955,586.8,0.0302,-0.0126,0.9648
2025-05-09 12:49:51.443289,586.8,0.0302,-0.0126,0.9648
2025-05-09 12:49:51.593109,573.6,0.0385,-0.0073,0.997
2025-05-09 12:49:51.593388,573.6,0.0385,-0.0073,0.997
2025-05-09 12:49:52.386667,573.6,0.0415,-0.0161,0.9677
2025-05-09 12:49:52.386880,573.6,0.0415,-0.0161,0.9677
2025-05-09 12:49:53.234855,547.4,0.0332,-0.0158,0.9621
2025-05-09 12:49:53.235387,547.4,0.0332,-0.0158,0.9621
2025-05-09 12:49:53.796872,573.6,0.0324,-0.0048,0.9704
2025-05-09 12:49:53.797291,573.6,0.0324,-0.0048,0.9704
2025-05-09 12:49:54.237590,560.5,0.0495,-0.0061,0.9716
2025-05-09 12:49:54.237916,560.5,0.0495,-0.0061,0.9716
2025-05-09 12:49:54.439569,573.6,0.0344,-0.0173,0.9697
2025-05-09 12:49:54.439923,573.6,0.0344,-0.0173,0.9697
2025-05-09 12:49:54.494740,599.9,0.0314,-0.0197,0.9687
2025-05-09 12:49:54.495013,599.9,0.0314,-0.0197,0.9687
2025-05-09 12:49:54.696797,560.5,0.0441,-0.0092,0.9687
2025-05-09 12:49:54.697531,560.5,0.0441,-0.0092,0.9687
2025-05-09 12:49:54.787973,560.5,0.0441,-0.0092,0.9687
2025-05-09 12:49:54.788638,560.5,0.0441,-0.0092,0.9687
2025-05-09 12:49:55.295591,508.1,0.0354,-0.0109,0.9716
2025-05-09 12:49:55.296128,508.1,0.0354,-0.0109,0.9716
2025-05-09 12:49:55.596312,547.4,0.0468,-0.0197,0.9709
2025-05-09 12:49:55.596535,547.4,0.0468,-0.0197,0.9709
2025-05-09 12:49:55.793187,586.8,0.0427,-0.0019,0.9699
2025-05-09 12:49:55.793395,586.8,0.0427,-0.0019,0.9699
2025-05-09 12:49:56.296046,547.4,0.0346,-0.017,0.9621
2025-05-09 12:49:56.296334,547.4,0.0346,-0.017,0.9621
2025-05-09 12:49:56.382700,547.4,0.0346,-0.017,0.9621
2025-05-09 12:49:56.382978,547.4,0.0346,-0.017,0.9621
2025-05-09 12:49:56.496205,534.3,0.0385,-0.0151,0.9687
2025-05-09 12:49:58.044612,560.5,0.0412,-0.017,0.9782
2025-05-09 12:49:58.044847,560.5,0.0412,-0.017,0.9782
2025-05-09 12:49:58.086056,560.5,0.0412,-0.017,0.9782
2025-05-09 12:49:58.086400,560.5,0.0412,-0.017,0.9782
2025-05-09 12:49:58.337559,547.4,0.0368,-0.0061,0.977
2025-05-09 12:49:58.337875,547.4,0.0368,-0.0061,0.977
2025-05-09 12:49:58.584346,573.6,0.0344,-0.0122,0.9707
2025-05-09 12:49:58.584720,573.6,0.0344,-0.0122,0.9707
2025-05-09 12:49:58.736113,586.8,0.0405,-0.0126,0.9655
2025-05-09 12:50:00.140668,560.5,0.0373,-0.0036,0.9738
2025-05-09 12:50:00.140975,560.5,0.0373,-0.0036,0.9738
2025-05-09 12:50:00.393751,586.8,0.0432,-0.0102,0.9694
2025-05-09 12:50:00.394036,586.8,0.0432,-0.0102,0.9694
2025-05-09 12:50:00.494323,586.8,0.0437,-0.0139,0.9672
2025-05-09 12:50:00.494854,586.8,0.0437,-0.0139,0.9672
2025-05-09 12:50:00.700376,547.4,0.0393,-0.0109,0.9685
2025-05-09 12:50:03.436793,547.4,0.0449,-0.0107,0.9729
2025-05-09 12:50:03.437341,547.4,0.0449,-0.0107,0.9729
2025-05-09 12:50:03.996853,547.4,0.0349,-0.009,0.9321
2025-05-09 12:50:03.997386,547.4,0.0349,-0.009,0.9321
2025-05-09 12:50:04.143315,560.5,0.0334,-0.0061,0.9714
2025-05-09 12:50:04.143881,560.5,0.0334,-0.0061,0.9714
2025-05-09 12:50:04.393528,547.4,0.0388,-0.0117,0.979
2025-05-09 12:50:04.393860,547.4,0.0388,-0.0117,0.979
2025-05-09 12:50:04.642912,573.6,0.0424,-0.0285,0.9665
2025-05-09 12:50:04.643565,573.6,0.0424,-0.0285,0.9665
2025-05-09 12:50:04.694473,547.4,0.0305,-0.0112,0.9809
2025-05-09 12:50:04.694995,547.4,0.0305,-0.0112,0.9809
2025-05-09 12:50:05.884540,586.8,0.0275,-0.0151,0.9636
2025-05-09 12:50:05.884922,586.8,0.0275,-0.0151,0.9636
2025-05-09 12:50:06.394208,560.5,0.0395,-0.0068,0.9763
2025-05-09 12:50:06.394652,560.5,0.0395,-0.0068,0.9763
2025-05-09 12:50:06.440184,560.5,0.0395,-0.0068,0.9763
2025-05-09 12:50:06.440415,560.5,0.0395,-0.0068,0.9763
2025-05-09 12:50:07.023305,599.9,0.0402,-0.0102,0.9687
2025-05-09 12:50:07.094045,586.8,0.0329,-0.0092,0.9748
2025-05-09 12:50:07.094381,586.8,0.0329,-0.0092,0.9748
2025-05-09 12:50:07.394025,586.8,0.04,-0.0085,0.9694
2025-05-09 12:50:07.394571,586.8,0.04,-0.0085,0.9694
2025-05-09 12:50:07.596481,547.4,0.0288,-0.0056,0.9648
2025-05-09 12:50:07.597074,547.4,0.0288,-0.0056,0.9648
2025-05-09 12:50:07.936557,560.5,0.0397,-0.0012,0.9663
2025-05-09 12:50:07.936912,560.5,0.0397,-0.0012,0.9663
2025-05-09 12:50:08.192757,560.5,0.0397,-0.0012,0.9663
2025-05-09 12:50:08.478605,599.9,0.0407,-0.0195,0.9653
2025-05-09 12:50:08.478884,599.9,0.0407,-0.0195,0.9653
2025-05-09 12:50:09.494969,560.5,0.0378,-0.0114,0.966
2025-05-09 12:50:09.495341,560.5,0.0378,-0.0114,0.966
2025-05-09 12:50:09.737290,560.5,0.0312,-0.0107,0.9697
2025-05-09 12:50:09.737699,560.5,0.0312,-0.0107,0.9697
2025-05-09 12:50:10.294309,613.0,0.0378,-0.0131,0.9738
2025-05-09 12:50:10.294522,613.0,0.0378,-0.0131,0.9738
2025-05-09 12:50:11.686943,613.0,0.0407,-0.0151,0.9609
2025-05-09 12:50:11.687169,613.0,0.0407,-0.0151,0.9609
2025-05-09 12:50:11.879651,573.6,0.0402,-0.01,0.9709
2025-05-09 12:50:11.879843,573.6,0.0402,-0.01,0.9709
2025-05-09 12:50:13.378391,599.9,0.0402,-0.0187,0.9682
2025-05-09 12:50:13.378569,599.9,0.0402,-0.0187,0.9682
2025-05-09 12:50:13.644529,586.8,0.0417,-0.02,0.9738
2025-05-09 12:50:13.644890,586.8,0.0417,-0.02,0.9738
2025-05-09 12:50:13.794801,586.8,0.0334,-0.0122,0.9738
2025-05-09 12:50:13.795132,586.8,0.0334,-0.0122,0.9738
2025-05-09 12:50:13.945392,586.8,0.0324,-0.0197,0.9711
2025-05-09 12:50:13.945905,586.8,0.0324,-0.0197,0.9711
2025-05-09 12:50:14.284401,573.6,0.0275,-0.0153,0.9809
2025-05-09 12:50:14.284937,573.6,0.0275,-0.0153,0.9809
2025-05-09 12:50:14.494618,599.9,0.031,-0.02,0.9707
2025-05-09 12:50:14.494883,599.9,0.031,-0.02,0.9707
2025-05-09 12:50:14.796626,599.9,0.0344,-0.0053,0.9724
2025-05-09 12:50:14.797251,599.9,0.0344,-0.0053,0.9724
2025-05-09 12:50:14.882392,599.9,0.0344,-0.0053,0.9724
2025-05-09 12:50:14.882650,599.9,0.0344,-0.0053,0.9724
2025-05-09 12:50:15.443746,586.8,0.0297,-0.0183,0.9628
2025-05-09 12:50:15.444274,586.8,0.0297,-0.0183,0.9628
2025-05-09 12:50:15.779651,626.1,0.0295,-0.009,0.979
2025-05-09 12:50:16.035769,626.1,0.0332,-0.0192,0.9809
2025-05-09 12:50:16.036191,626.1,0.0332,-0.0192,0.9809
2025-05-09 12:50:16.793729,613.0,0.0339,-0.0117,0.9746
2025-05-09 12:50:16.794024,613.0,0.0339,-0.0117,0.9746
2025-05-09 12:50:17.296604,613.0,0.0361,-0.0144,0.9614
2025-05-09 12:50:17.296950,613.0,0.0361,-0.0144,0.9614
2025-05-09 12:50:18.477249,626.1,0.0288,-0.0053,0.9704
2025-05-09 12:50:18.477454,626.1,0.0288,-0.0053,0.9704
2025-05-09 12:50:18.781327,626.1,0.0385,-0.0083,0.9726
2025-05-09 12:50:18.994587,613.0,0.0319,-0.0178,0.9768
2025-05-09 12:50:18.995219,613.0,0.0319,-0.0178,0.9768
2025-05-09 12:50:19.894879,626.1,0.0439,-0.0083,0.9721
2025-05-09 12:50:19.895219,626.1,0.0439,-0.0083,0.9721
2025-05-09 12:50:21.115392,547.4,0.0358,-0.0173,0.9714
2025-05-09 12:50:21.434531,573.6,0.0371,-0.0119,0.9665
2025-05-09 12:50:21.435340,573.6,0.0371,-0.0119,0.9665
2025-05-09 12:50:21.492940,626.1,0.0366,-0.0219,0.9672
2025-05-09 12:50:21.493357,626.1,0.0366,-0.0219,0.9672
2025-05-09 12:50:21.995218,599.9,0.0334,-0.0087,0.9721
2025-05-09 12:50:21.995429,599.9,0.0334,-0.0087,0.9721
2025-05-09 12:50:22.039625,599.9,0.0334,-0.0087,0.9721
2025-05-09 12:50:22.039805,599.9,0.0334,-0.0087,0.9721
2025-05-09 12:50:22.939217,586.8,0.0393,-0.0107,0.9714
2025-05-09 12:50:22.939404,586.8,0.0393,-0.0107,0.9714
2025-05-09 12:50:22.979735,586.8,0.0393,-0.0107,0.9714
2025-05-09 12:50:22.980118,586.8,0.0393,-0.0107,0.9714
2025-05-09 12:50:23.238658,560.5,0.0368,-0.0185,0.968
2025-05-09 12:50:23.238907,560.5,0.0368,-0.0185,0.968
2025-05-09 12:50:24.117899,586.8,0.0329,-0.0095,0.9697
2025-05-09 12:50:24.795951,626.1,0.0415,-0.0065,0.9726
2025-05-09 12:50:24.796517,626.1,0.0415,-0.0065,0.9726
2025-05-09 12:50:25.093774,639.2,0.0412,-0.0136,0.9787
2025-05-09 12:50:25.094310,639.2,0.0412,-0.0136,0.9787
2025-05-09 12:50:26.837431,652.3,0.0297,-0.0134,0.9714
2025-05-09 12:50:26.837689,652.3,0.0297,-0.0134,0.9714
2025-05-09 12:50:27.441988,599.9,0.0405,-0.008,0.9716
2025-05-09 12:50:27.442165,599.9,0.0405,-0.008,0.9716
2025-05-09 12:50:27.688577,547.4,0.0363,-0.0141,0.9604
2025-05-09 12:50:27.688831,547.4,0.0363,-0.0141,0.9604
2025-05-09 12:50:27.738929,547.4,0.0314,-0.0141,0.9753
2025-05-09 12:50:27.739247,547.4,0.0314,-0.0141,0.9753
2025-05-09 12:50:27.785148,547.4,0.0314,-0.0141,0.9753
2025-05-09 12:50:27.785364,547.4,0.0314,-0.0141,0.9753
2025-05-09 12:50:28.383468,560.5,0.0419,-0.0126,0.9729
2025-05-09 12:50:28.383665,560.5,0.0419,-0.0126,0.9729
2025-05-09 12:50:28.584587,586.8,0.0393,-0.01,0.9743
2025-05-09 12:50:28.584918,586.8,0.0393,-0.01,0.9743
2025-05-09 12:50:28.642182,639.2,0.0388,-0.0053,0.975
2025-05-09 12:50:28.642372,639.2,0.0388,-0.0053,0.975
2025-05-09 12:50:28.988074,586.8,0.0332,-0.0063,0.9721
2025-05-09 12:50:28.988352,586.8,0.0332,-0.0063,0.9721
2025-05-09 12:50:29.236465,586.8,0.0349,-0.0166,0.9645
2025-05-09 12:50:29.236872,586.8,0.0349,-0.0166,0.9645
2025-05-09 12:50:29.641734,586.8,0.0351,-0.0119,0.9692
2025-05-09 12:50:29.642018,586.8,0.0351,-0.0119,0.9692
2025-05-09 12:50:30.488113,586.8,0.0417,-0.0146,0.9665
2025-05-09 12:50:30.488695,586.8,0.0417,-0.0146,0.9665
2025-05-09 12:50:30.989513,613.0,0.0375,-0.0178,0.9758
2025-05-09 12:50:31.638741,560.5,0.0395,-0.0117,0.9743
2025-05-09 12:50:31.639282,560.5,0.0395,-0.0117,0.9743
2025-05-09 12:50:31.895928,613.0,0.0361,-0.008,0.9782
2025-05-09 12:50:31.940764,586.8,0.0449,-0.0144,0.9748
2025-05-09 12:50:31.941055,586.8,0.0449,-0.0144,0.9748
2025-05-09 12:50:32.503926,599.9,0.0358,-0.0087,0.9663
2025-05-09 12:50:33.437175,599.9,0.0283,-0.0009,0.9665
2025-05-09 12:50:33.437654,599.9,0.0283,-0.0009,0.9665
2025-05-09 12:50:33.685914,613.0,0.0412,-0.0156,0.9753
2025-05-09 12:50:33.686345,613.0,0.0412,-0.0156,0.9753
2025-05-09 12:50:33.696038,613.0,0.0405,-0.0195,0.9702
2025-05-09 12:50:33.696689,613.0,0.0405,-0.0195,0.9702
2025-05-09 12:50:33.785040,613.0,0.0405,-0.0195,0.9702
2025-05-09 12:50:33.785310,613.0,0.0405,-0.0195,0.9702
2025-05-09 12:50:34.039692,586.8,0.0358,-0.0134,0.9665
2025-05-09 12:50:34.039886,586.8,0.0358,-0.0134,0.9665
2025-05-09 12:50:35.788864,613.0,0.0368,-0.0146,0.9687
2025-05-09 12:50:35.789153,613.0,0.0368,-0.0146,0.9687
2025-05-09 12:50:35.792912,626.1,0.0366,-0.0119,0.978
2025-05-09 12:50:35.793174,626.1,0.0366,-0.0119,0.978
2025-05-09 12:50:36.095559,626.1,0.0383,-0.0134,0.9689
2025-05-09 12:50:36.095740,626.1,0.0383,-0.0134,0.9689
2025-05-09 12:50:36.144524,626.1,0.0383,-0.0134,0.9689
2025-05-09 12:50:36.144794,626.1,0.0383,-0.0134,0.9689
2025-05-09 12:50:36.194497,639.2,0.0412,-0.0236,0.968
2025-05-09 12:50:36.195039,639.2,0.0412,-0.0236,0.968
2025-05-09 12:50:37.040761,586.8,0.0349,-0.0124,0.9663
2025-05-09 12:50:37.041098,586.8,0.0349,-0.0124,0.9663
2025-05-09 12:50:37.378523,586.8,0.0334,-0.0158,0.9775
2025-05-09 12:50:37.378904,586.8,0.0334,-0.0158,0.9775
2025-05-09 12:50:37.592928,560.5,0.03,-0.0043,0.9682
2025-05-09 12:50:37.593244,560.5,0.03,-0.0043,0.9682
2025-05-09 12:50:37.984680,573.6,0.041,-0.0153,0.9702
2025-05-09 12:50:37.985001,573.6,0.041,-0.0153,0.9702
2025-05-09 12:50:38.295193,586.8,0.0358,-0.0083,0.9797
2025-05-09 12:50:38.295584,586.8,0.0358,-0.0083,0.9797
2025-05-09 12:50:39.185293,586.8,0.0375,-0.0173,0.9626
2025-05-09 12:50:39.185630,586.8,0.0375,-0.0173,0.9626
2025-05-09 12:50:39.203024,573.6,0.0427,-0.0104,0.9711
2025-05-09 12:50:39.479697,586.8,0.0351,-0.0161,0.9711
2025-05-09 12:50:39.480075,586.8,0.0351,-0.0161,0.9711
2025-05-09 12:50:40.096036,599.9,0.0444,-0.0043,0.9633
2025-05-09 12:50:40.096856,599.9,0.0444,-0.0043,0.9633
2025-05-09 12:50:40.920924,599.9,0.0371,-0.0039,0.9658
2025-05-09 12:50:41.016755,573.6,0.0354,-0.0109,0.9726
2025-05-09 12:50:41.193687,613.0,0.0361,-0.0107,0.9794
2025-05-09 12:50:41.194065,613.0,0.0361,-0.0107,0.9794
2025-05-09 12:50:41.498996,573.6,0.039,-0.0114,0.966
2025-05-09 12:50:41.807001,599.9,0.0388,-0.0246,0.986
2025-05-09 12:50:41.885347,599.9,0.0388,-0.0246,0.986
2025-05-09 12:50:41.886040,599.9,0.0388,-0.0246,0.986
2025-05-09 12:50:42.092263,599.9,0.0349,-0.0053,0.9667
2025-05-09 12:50:42.092531,599.9,0.0349,-0.0053,0.9667
2025-05-09 12:50:42.401725,599.9,0.0349,-0.0053,0.9667
2025-05-09 12:50:42.737362,547.4,0.0373,-0.0053,0.9567
2025-05-09 12:50:42.737592,547.4,0.0373,-0.0053,0.9567
2025-05-09 12:50:42.783472,547.4,0.0373,-0.0053,0.9567
2025-05-09 12:50:42.783766,547.4,0.0373,-0.0053,0.9567
2025-05-09 12:50:43.081720,534.3,0.0412,-0.0102,0.9816
2025-05-09 12:50:43.081993,534.3,0.0412,-0.0102,0.9816
2025-05-09 12:50:43.630914,586.8,0.0361,-0.0219,0.9758
2025-05-09 12:50:44.398407,560.5,0.0354,-0.0158,0.9729
2025-05-09 12:50:44.813511,586.8,0.0383,-0.0112,0.9597
2025-05-09 12:50:44.841277,586.8,0.0383,-0.0112,0.9597
2025-05-09 12:50:44.841739,586.8,0.0383,-0.0112,0.9597
2025-05-09 12:50:45.156656,586.8,0.0383,-0.0112,0.9597
2025-05-09 12:50:45.695587,599.9,0.0395,-0.0183,0.9704
2025-05-09 12:50:45.695766,599.9,0.0395,-0.0183,0.9704
2025-05-09 12:50:46.336139,573.6,0.04,-0.0083,0.9643
2025-05-09 12:50:46.336730,573.6,0.04,-0.0083,0.9643
2025-05-09 12:50:46.394822,573.6,0.0349,-0.0146,0.9709
2025-05-09 12:50:46.395045,573.6,0.0349,-0.0146,0.9709
2025-05-09 12:50:46.997093,599.9,0.0258,-0.0217,0.9848
2025-05-09 12:50:46.997505,599.9,0.0258,-0.0217,0.9848
2025-05-09 12:50:47.285046,599.9,0.0361,-0.0117,0.9719
2025-05-09 12:50:47.285319,599.9,0.0361,-0.0117,0.9719
2025-05-09 12:50:47.834747,547.4,0.0415,-0.0092,0.9653
2025-05-09 12:50:47.834953,547.4,0.0415,-0.0092,0.9653
2025-05-09 12:50:48.143512,586.8,0.0405,-0.0092,0.9685
2025-05-09 12:50:48.143737,586.8,0.0405,-0.0092,0.9685
2025-05-09 12:50:49.683714,560.5,0.0297,-0.0087,0.9633
2025-05-09 12:50:49.684435,560.5,0.0297,-0.0087,0.9633
2025-05-09 12:50:49.705342,586.8,0.0444,-0.0063,0.9697
2025-05-09 12:50:49.934619,573.6,0.0354,-0.0153,0.9653
2025-05-09 12:50:49.934900,573.6,0.0354,-0.0153,0.9653
2025-05-09 12:50:50.883646,613.0,0.0395,-0.0114,0.9655
2025-05-09 12:50:50.883999,613.0,0.0395,-0.0114,0.9655
2025-05-09 12:50:51.441150,599.9,0.041,-0.0112,0.9682
2025-05-09 12:50:51.441369,599.9,0.041,-0.0112,0.9682
2025-05-09 12:50:52.342010,586.8,0.0334,-0.0058,0.9658
2025-05-09 12:50:52.342239,586.8,0.0334,-0.0058,0.9658
2025-05-09 12:50:53.009004,613.0,0.0371,-0.0119,0.968
2025-05-09 12:50:53.242609,599.9,0.028,-0.0146,0.9533
2025-05-09 12:50:53.242903,599.9,0.028,-0.0146,0.9533
2025-05-09 12:50:53.291604,599.9,0.028,-0.0146,0.9533
2025-05-09 12:50:53.292400,626.1,0.0361,-0.0107,0.9685
2025-05-09 12:50:53.292609,626.1,0.0361,-0.0107,0.9685
2025-05-09 12:50:53.896114,613.0,0.0378,-0.0092,0.989
2025-05-09 12:50:53.896454,613.0,0.0378,-0.0092,0.989
2025-05-09 12:50:54.407750,599.9,0.0366,-0.0117,0.9602
2025-05-09 12:50:55.002464,639.2,0.0319,-0.0122,0.9746
2025-05-09 12:50:55.053586,599.9,0.0385,-0.0136,0.9619
2025-05-09 12:50:55.394483,613.0,0.0461,-0.0087,0.968
2025-05-09 12:50:55.394741,613.0,0.0461,-0.0087,0.968
2025-05-09 12:50:55.794432,613.0,0.041,-0.0126,0.9697
2025-05-09 12:50:55.795069,613.0,0.0393,-0.0119,0.9665
2025-05-09 12:50:55.795529,613.0,0.0393,-0.0119,0.9665
2025-05-09 12:50:55.996359,573.6,0.0346,-0.0124,0.9726
2025-05-09 12:50:56.884512,626.1,0.0351,-0.0151,0.9687
2025-05-09 12:50:56.884867,626.1,0.0351,-0.0151,0.9687
2025-05-09 12:50:57.487802,599.9,0.0397,-0.0107,0.9719
2025-05-09 12:50:57.488232,599.9,0.0397,-0.0107,0.9719
2025-05-09 12:50:58.635471,573.6,0.0322,-0.0119,0.9611
2025-05-09 12:50:58.635751,573.6,0.0322,-0.0119,0.9611
2025-05-09 12:50:58.777183,573.6,0.0356,-0.0139,0.9733
2025-05-09 12:50:58.777543,573.6,0.0356,-0.0139,0.9733
2025-05-09 12:50:58.894493,573.6,0.0373,-0.0187,0.9672
2025-05-09 12:50:58.894861,573.6,0.0373,-0.0187,0.9672
2025-05-09 12:50:59.384855,560.5,0.031,-0.0126,0.9685
2025-05-09 12:50:59.385215,560.5,0.031,-0.0126,0.9685
2025-05-09 12:50:59.395073,560.5,0.0407,-0.0161,0.9663
2025-05-09 12:50:59.395303,560.5,0.0407,-0.0161,0.9663
2025-05-09 12:50:59.493194,573.6,0.0327,-0.0097,0.9741
2025-05-09 12:50:59.493579,573.6,0.0327,-0.0097,0.9741
2025-05-09 12:50:59.794921,586.8,0.0327,-0.0153,0.9643
2025-05-09 12:50:59.795317,586.8,0.0327,-0.0153,0.9643
2025-05-09 12:51:00.111680,573.6,0.0412,-0.0141,0.9702
2025-05-09 12:51:00.195573,586.8,0.0422,-0.0104,0.9609
2025-05-09 12:51:00.195968,586.8,0.0422,-0.0104,0.9609
2025-05-09 12:51:00.493405,547.4,0.0332,-0.0104,0.9702
2025-05-09 12:51:01.095758,560.5,0.038,-0.0173,0.957
2025-05-09 12:51:01.096105,560.5,0.038,-0.0173,0.957
2025-05-09 12:51:01.995630,560.5,0.0393,-0.0134,0.9611
2025-05-09 12:51:01.996090,560.5,0.0393,-0.0134,0.9611
2025-05-09 12:51:02.237416,534.3,0.0327,-0.0153,0.9677
2025-05-09 12:51:02.237601,534.3,0.0327,-0.0153,0.9677
2025-05-09 12:51:02.492775,534.3,0.0327,-0.0153,0.9677
2025-05-09 12:51:02.509950,560.5,0.0361,-0.0078,0.9633
2025-05-09 12:51:02.794678,560.5,0.0346,-0.0097,0.9638
2025-05-09 12:51:02.794863,560.5,0.0346,-0.0097,0.9638
2025-05-09 12:51:02.883566,560.5,0.0346,-0.0097,0.9638
2025-05-09 12:51:02.883797,560.5,0.0346,-0.0097,0.9638
2025-05-09 12:51:03.092514,599.9,0.0393,-0.0197,0.9567
2025-05-09 12:51:03.092738,599.9,0.0393,-0.0197,0.9567
2025-05-09 12:51:03.136073,599.9,0.0393,-0.0197,0.9567
2025-05-09 12:51:03.136470,599.9,0.0393,-0.0197,0.9567
2025-05-09 12:51:03.493596,573.6,0.0334,-0.0056,0.9665
2025-05-09 12:51:03.493930,573.6,0.0334,-0.0056,0.9665
2025-05-09 12:51:03.835701,560.5,0.0307,-0.0126,0.9665
2025-05-09 12:51:04.092455,586.8,0.038,-0.0153,0.9655
2025-05-09 12:51:04.092733,586.8,0.038,-0.0153,0.9655
2025-05-09 12:51:04.293775,560.5,0.0292,-0.0158,0.9663
2025-05-09 12:51:04.294113,560.5,0.0292,-0.0158,0.9663
2025-05-09 12:51:04.338232,560.5,0.0292,-0.0158,0.9663
2025-05-09 12:51:04.338352,560.5,0.0292,-0.0158,0.9663
2025-05-09 12:51:04.393555,560.5,0.0427,-0.0192,0.9687
2025-05-09 12:51:04.393744,560.5,0.0427,-0.0192,0.9687
2025-05-09 12:51:04.595989,560.5,0.031,-0.0092,0.9692
2025-05-09 12:51:04.596205,560.5,0.031,-0.0092,0.9692
2025-05-09 12:51:04.637902,560.5,0.031,-0.0092,0.9692
2025-05-09 12:51:04.638374,560.5,0.031,-0.0092,0.9692
2025-05-09 12:51:04.695788,573.6,0.0341,-0.0109,0.9633
2025-05-09 12:51:04.696344,573.6,0.0341,-0.0109,0.9633
2025-05-09 12:51:04.934429,586.8,0.0354,-0.0131,0.968
2025-05-09 12:51:04.934968,586.8,0.0354,-0.0131,0.968
2025-05-09 12:51:05.237522,573.6,0.0358,-0.0114,0.9736
2025-05-09 12:51:05.237768,573.6,0.0358,-0.0114,0.9736
2025-05-09 12:51:05.530925,573.6,0.0358,-0.0114,0.9736
2025-05-09 12:51:05.540610,560.5,0.0361,-0.0083,0.9704
2025-05-09 12:51:05.595435,534.3,0.0351,-0.0107,0.9645
2025-05-09 12:51:05.596051,534.3,0.0351,-0.0107,0.9645
2025-05-09 12:51:05.793538,534.3,0.0354,-0.0117,0.9667
2025-05-09 12:51:05.793860,534.3,0.0354,-0.0117,0.9667
2025-05-09 12:51:06.093667,573.6,0.0358,-0.0124,0.9675
2025-05-09 12:51:06.093925,573.6,0.0358,-0.0124,0.9675
2025-05-09 12:51:06.503193,560.5,0.0339,-0.0161,0.968
2025-05-09 12:51:06.738745,560.5,0.0417,-0.0131,0.9736
2025-05-09 12:51:06.738965,560.5,0.0417,-0.0131,0.9736
2025-05-09 12:51:06.994087,586.8,0.0312,-0.0083,0.975
2025-05-09 12:51:06.994254,586.8,0.0312,-0.0083,0.975
2025-05-09 12:51:07.093985,573.6,0.0336,-0.0173,0.9672
2025-05-09 12:51:07.094167,573.6,0.0336,-0.0173,0.9672
2025-05-09 12:51:07.384206,534.3,0.0334,-0.0129,0.9733
2025-05-09 12:51:07.384486,534.3,0.0334,-0.0129,0.9733
2025-05-09 12:51:08.499402,560.5,0.0395,-0.0124,0.9775
2025-05-09 12:51:08.593392,534.3,0.0402,-0.0161,0.967
2025-05-09 12:51:08.593678,534.3,0.0402,-0.0161,0.967
2025-05-09 12:51:09.151966,560.5,0.0395,-0.0114,0.9667
2025-05-09 12:51:09.192650,560.5,0.0402,-0.0097,0.9824
2025-05-09 12:51:09.193168,560.5,0.0402,-0.0097,0.9824
2025-05-09 12:51:09.493988,547.4,0.0393,-0.0163,0.9729
2025-05-09 12:51:09.494369,547.4,0.0393,-0.0163,0.9729
2025-05-09 12:51:10.037142,547.4,0.0393,-0.0173,0.9663
2025-05-09 12:51:10.037379,547.4,0.0393,-0.0173,0.9663
2025-05-09 12:51:10.694748,547.4,0.0397,-0.0095,0.9746
2025-05-09 12:51:10.695097,547.4,0.0397,-0.0095,0.9746
2025-05-09 12:51:10.938870,573.6,0.0349,-0.0112,0.9716
2025-05-09 12:51:10.939134,573.6,0.0349,-0.0112,0.9716
2025-05-09 12:51:11.235210,547.4,0.0344,-0.0109,0.9697
2025-05-09 12:51:11.235545,547.4,0.0344,-0.0109,0.9697
2025-05-09 12:51:11.288220,547.4,0.0344,-0.0109,0.9697
2025-05-09 12:51:11.521459,534.3,0.0346,-0.0153,0.9721
2025-05-09 12:51:13.301558,560.5,0.0368,-0.0146,0.965
2025-05-09 12:51:13.362413,599.9,0.0332,-0.0129,0.9685
2025-05-09 12:51:13.634963,586.8,0.0366,-0.0146,0.9667
2025-05-09 12:51:13.635224,586.8,0.0366,-0.0146,0.9667
2025-05-09 12:51:13.685769,586.8,0.0366,-0.0146,0.9667
2025-05-09 12:51:13.685995,586.8,0.0366,-0.0146,0.9667
2025-05-09 12:51:13.937457,560.5,0.0363,-0.01,0.9721
2025-05-09 12:51:13.937937,560.5,0.0363,-0.01,0.9721
2025-05-09 12:51:13.985814,560.5,0.0363,-0.01,0.9721
2025-05-09 12:51:13.986323,560.5,0.0363,-0.01,0.9721
2025-05-09 12:51:14.637552,599.9,0.0339,-0.0095,0.9697
2025-05-09 12:51:14.637987,599.9,0.0339,-0.0095,0.9697
2025-05-09 12:51:14.836239,547.4,0.0339,-0.0083,0.9721
2025-05-09 12:51:14.836732,547.4,0.0339,-0.0083,0.9721
2025-05-09 12:51:14.885983,547.4,0.0339,-0.0083,0.9721
2025-05-09 12:51:14.886293,547.4,0.0339,-0.0083,0.9721
2025-05-09 12:51:16.006677,560.5,0.0361,-0.0065,0.9626
2025-05-09 12:51:16.035783,573.6,0.0344,-0.0134,0.9763
2025-05-09 12:51:16.036269,573.6,0.0344,-0.0134,0.9763
2025-05-09 12:51:16.541296,586.8,0.0344,-0.0119,0.9672
2025-05-09 12:51:16.541815,586.8,0.0344,-0.0119,0.9672
2025-05-09 12:51:17.588031,560.5,0.0363,-0.0161,0.9775
2025-05-09 12:51:17.588446,560.5,0.0363,-0.0161,0.9775
2025-05-09 12:51:17.843031,560.5,0.0341,-0.0117,0.9645
2025-05-09 12:51:17.843545,560.5,0.0341,-0.0117,0.9645
2025-05-09 12:51:18.994666,547.4,0.0363,-0.0124,0.9826
2025-05-09 12:51:18.995200,547.4,0.0363,-0.0124,0.9826
2025-05-09 12:51:19.083840,547.4,0.0363,-0.0124,0.9826
2025-05-09 12:51:19.084397,547.4,0.0363,-0.0124,0.9826
2025-05-09 12:51:19.350419,573.6,0.0415,-0.0136,0.9685
2025-05-09 12:51:19.693828,573.6,0.0341,-0.0126,0.9731
2025-05-09 12:51:19.694221,573.6,0.0341,-0.0126,0.9731
2025-05-09 12:51:19.842552,586.8,0.0385,-0.0136,0.979
2025-05-09 12:51:19.941855,613.0,0.038,-0.0097,0.9665
2025-05-09 12:51:19.942104,613.0,0.038,-0.0097,0.9665
2025-05-09 12:51:19.982757,613.0,0.038,-0.0097,0.9665
2025-05-09 12:51:19.983008,613.0,0.038,-0.0097,0.9665
2025-05-09 12:51:19.994297,613.0,0.0415,-0.0129,0.9697
2025-05-09 12:51:19.994689,613.0,0.0415,-0.0129,0.9697
2025-05-09 12:51:20.295803,586.8,0.0368,-0.0126,0.9724
2025-05-09 12:51:20.296092,586.8,0.0368,-0.0126,0.9724
2025-05-09 12:51:20.884119,573.6,0.0356,-0.0146,0.9704
2025-05-09 12:51:20.884527,573.6,0.0356,-0.0146,0.9704
2025-05-09 12:51:21.442472,639.2,0.0278,-0.0129,0.965
2025-05-09 12:51:21.442819,639.2,0.0278,-0.0129,0.965
2025-05-09 12:51:21.736224,586.8,0.0375,-0.0073,0.9645
2025-05-09 12:51:21.736478,586.8,0.0375,-0.0073,0.9645
2025-05-09 12:51:21.778535,586.8,0.0375,-0.0073,0.9645
2025-05-09 12:51:21.778719,586.8,0.0375,-0.0073,0.9645
2025-05-09 12:51:22.958743,613.0,0.0349,-0.0144,0.9604
2025-05-09 12:51:24.493428,599.9,0.0324,-0.0087,0.9731
2025-05-09 12:51:24.493730,599.9,0.0324,-0.0087,0.9731
2025-05-09 12:51:24.739391,586.8,0.0334,-0.0126,0.9653
2025-05-09 12:51:24.739688,586.8,0.0334,-0.0126,0.9653
2025-05-09 12:51:25.134744,599.9,0.0393,-0.0151,0.9714
2025-05-09 12:51:25.135101,599.9,0.0393,-0.0151,0.9714
2025-05-09 12:51:25.696117,599.9,0.0412,-0.0156,0.968
2025-05-09 12:51:25.696461,599.9,0.0412,-0.0156,0.968
2025-05-09 12:51:25.992316,613.0,0.0371,-0.0168,0.9694
2025-05-09 12:51:25.992831,613.0,0.0371,-0.0168,0.9694
2025-05-09 12:51:27.194340,560.5,0.0368,-0.0058,0.9655
2025-05-09 12:51:27.194888,560.5,0.0368,-0.0058,0.9655
2025-05-09 12:51:27.733042,613.0,0.04,-0.0102,0.9609
2025-05-09 12:51:27.733550,613.0,0.04,-0.0102,0.9609
2025-05-09 12:51:27.793654,613.0,0.0415,-0.0202,0.9714
2025-05-09 12:51:27.794005,613.0,0.0415,-0.0202,0.9714
2025-05-09 12:51:28.376917,613.0,0.0366,-0.0163,0.9699
2025-05-09 12:51:28.387109,613.0,0.0366,-0.0163,0.9699
2025-05-09 12:51:28.387465,613.0,0.0366,-0.0163,0.9699
2025-05-09 12:51:28.581242,613.0,0.0363,-0.0161,0.978
2025-05-09 12:51:28.581396,613.0,0.0363,-0.0161,0.978
2025-05-09 12:51:29.835577,599.9,0.0312,-0.018,0.965
2025-05-09 12:51:30.187188,586.8,0.0417,-0.0139,0.9665
2025-05-09 12:51:30.187780,586.8,0.0417,-0.0139,0.9665
2025-05-09 12:51:31.087342,586.8,0.0349,-0.0175,0.9689
2025-05-09 12:51:31.087614,586.8,0.0349,-0.0175,0.9689
2025-05-09 12:51:31.973661,586.8,0.0336,-0.0107,0.968
2025-05-09 12:51:32.292811,599.9,0.0346,-0.0092,0.9729
2025-05-09 12:51:32.293315,599.9,0.0346,-0.0092,0.9729
2025-05-09 12:51:32.886447,573.6,0.0356,-0.0131,0.9687
2025-05-09 12:51:32.886649,573.6,0.0356,-0.0131,0.9687
2025-05-09 12:51:33.482017,560.5,0.04,-0.0102,0.9753
2025-05-09 12:51:33.482252,560.5,0.04,-0.0102,0.9753
2025-05-09 12:51:33.495191,560.5,0.0417,-0.0095,0.9602
2025-05-09 12:51:33.495412,560.5,0.0417,-0.0095,0.9602
2025-05-09 12:51:34.933195,547.4,0.0385,-0.0031,0.9587
2025-05-09 12:51:34.933722,547.4,0.0385,-0.0031,0.9587
2025-05-09 12:51:37.080760,586.8,0.0373,-0.0124,0.9697
2025-05-09 12:51:37.081202,586.8,0.0373,-0.0124,0.9697
2025-05-09 12:51:37.295847,573.6,0.0278,-0.0058,0.9611
2025-05-09 12:51:37.296221,573.6,0.0278,-0.0058,0.9611
2025-05-09 12:51:40.361137,547.4,0.0368,-0.0129,0.9645
2025-05-09 12:51:40.617641,599.9,0.0305,-0.0129,0.9787
2025-05-09 12:51:42.138908,560.5,0.0395,-0.0156,0.9667
2025-05-09 12:51:42.139343,560.5,0.0395,-0.0156,0.9667
2025-05-09 12:51:42.384742,547.4,0.0385,-0.0083,0.9658
2025-05-09 12:51:42.385233,547.4,0.0385,-0.0083,0.9658
2025-05-09 12:51:42.793529,521.2,0.0444,-0.0136,0.9609
2025-05-09 12:51:42.793805,521.2,0.0444,-0.0136,0.9609
2025-05-09 12:51:44.184469,521.2,0.0358,-0.0117,0.975
2025-05-09 12:51:44.184664,521.2,0.0358,-0.0117,0.975
2025-05-09 12:51:44.192886,547.4,0.0361,-0.0092,0.9641
2025-05-09 12:51:44.193310,547.4,0.0361,-0.0092,0.9641
2025-05-09 12:51:44.284537,547.4,0.0361,-0.0092,0.9641
2025-05-09 12:51:44.284993,547.4,0.0361,-0.0092,0.9641
2025-05-09 12:51:44.493996,560.5,0.0368,-0.0068,0.966
2025-05-09 12:51:44.494623,560.5,0.0368,-0.0068,0.966
2025-05-09 12:51:44.540695,560.5,0.0368,-0.0068,0.966
2025-05-09 12:51:44.541250,560.5,0.0368,-0.0068,0.966
2025-05-09 12:51:44.786039,547.4,0.0351,-0.0129,0.9621
2025-05-09 12:51:44.786461,547.4,0.0351,-0.0129,0.9621
2025-05-09 12:51:44.856006,560.5,0.0334,-0.0102,0.9599
2025-05-09 12:51:45.083505,534.3,0.0368,-0.0119,0.9606
2025-05-09 12:51:45.084088,534.3,0.0368,-0.0119,0.9606
2025-05-09 12:51:45.425430,573.6,0.0346,-0.0212,0.9687
2025-05-09 12:51:47.887131,586.8,0.0361,-0.0124,0.9626
2025-05-09 12:51:47.887478,586.8,0.0361,-0.0124,0.9626
2025-05-09 12:51:47.892615,547.4,0.0344,-0.0097,0.9663
2025-05-09 12:51:47.893166,547.4,0.0344,-0.0097,0.9663
2025-05-09 12:51:48.135962,547.4,0.0417,-0.0146,0.9636
2025-05-09 12:51:48.136252,547.4,0.0417,-0.0146,0.9636
2025-05-09 12:51:48.683308,547.4,0.0366,-0.0144,0.9768
2025-05-09 12:51:48.683655,521.2,0.0341,-0.0097,0.9682
2025-05-09 12:51:48.683863,521.2,0.0341,-0.0097,0.9682
2025-05-09 12:51:49.080960,560.5,0.041,-0.0195,0.9582
2025-05-09 12:51:49.081289,560.5,0.041,-0.0195,0.9582
2025-05-09 12:51:49.113980,547.4,0.0397,-0.019,0.9667
2025-05-09 12:51:50.516194,508.1,0.0373,-0.0178,0.9729
2025-05-09 12:51:50.585756,547.4,0.0366,-0.0156,0.9628
2025-05-09 12:51:50.586310,547.4,0.0366,-0.0156,0.9628
2025-05-09 12:51:50.885092,495.0,0.038,-0.0102,0.967
2025-05-09 12:51:50.885273,495.0,0.038,-0.0102,0.967
2025-05-09 12:51:52.692861,573.6,0.0327,-0.0141,0.9665
2025-05-09 12:51:52.693072,573.6,0.0327,-0.0141,0.9665
2025-05-09 12:51:53.571675,547.4,0.0366,-0.0107,0.9672
2025-05-09 12:51:54.154870,521.2,0.0405,-0.009,0.9707
2025-05-09 12:51:54.176685,521.2,0.0405,-0.009,0.9707
2025-05-09 12:51:54.177130,521.2,0.0405,-0.009,0.9707
2025-05-09 12:51:54.794038,534.3,0.0334,-0.0131,0.9724
2025-05-09 12:51:54.794226,534.3,0.0334,-0.0131,0.9724
2025-05-09 12:51:55.677047,547.4,0.0378,-0.0073,0.9699
2025-05-09 12:51:55.677428,547.4,0.0378,-0.0073,0.9699
2025-05-09 12:51:55.992781,547.4,0.0358,-0.0092,0.9724
2025-05-09 12:51:55.993336,547.4,0.0358,-0.0092,0.9724
2025-05-09 12:51:56.287504,521.2,0.0332,-0.0124,0.977
2025-05-09 12:51:56.287831,521.2,0.0332,-0.0124,0.977
2025-05-09 12:51:56.293660,547.4,0.0383,-0.0087,0.9663
2025-05-09 12:51:56.294078,547.4,0.0383,-0.0087,0.9663
2025-05-09 12:51:56.568045,547.4,0.04,-0.0148,0.9648
2025-05-09 12:51:56.597102,547.4,0.04,-0.0148,0.9648
2025-05-09 12:51:56.883994,534.3,0.0385,-0.0085,0.9697
2025-05-09 12:51:56.884174,534.3,0.0385,-0.0085,0.9697
2025-05-09 12:51:57.136681,547.4,0.0424,-0.0144,0.966
2025-05-09 12:51:57.137241,547.4,0.0424,-0.0144,0.966
2025-05-09 12:51:57.194325,573.6,0.0332,-0.0117,0.9799
2025-05-09 12:51:57.194867,573.6,0.0332,-0.0117,0.9799
2025-05-09 12:51:58.093097,560.5,0.0407,-0.0185,0.9685
2025-05-09 12:51:58.093351,560.5,0.0407,-0.0185,0.9685
2025-05-09 12:51:58.302566,560.5,0.0407,-0.0185,0.9685
2025-05-09 12:51:58.642413,560.5,0.0437,-0.0063,0.9687
2025-05-09 12:51:58.642975,560.5,0.0437,-0.0063,0.9687
2025-05-09 12:51:58.932445,534.3,0.0373,-0.008,0.9697
2025-05-09 12:51:58.932649,534.3,0.0373,-0.008,0.9697
2025-05-09 12:52:00.097979,573.6,0.0334,-0.0097,0.9777
2025-05-09 12:52:00.792543,560.5,0.0388,-0.0158,0.9626
2025-05-09 12:52:00.793190,560.5,0.0388,-0.0158,0.9626
2025-05-09 12:52:01.241040,534.3,0.0305,-0.0063,0.9631
2025-05-09 12:52:01.241895,534.3,0.0305,-0.0063,0.9631
2025-05-09 12:52:02.573487,560.5,0.0385,-0.0122,0.9616
2025-05-09 12:52:02.575082,560.5,0.0385,-0.0122,0.9616
2025-05-09 12:52:02.594906,560.5,0.0329,-0.0087,0.9672
2025-05-09 12:52:02.595394,560.5,0.0329,-0.0087,0.9672
2025-05-09 12:52:02.903161,547.4,0.0397,-0.0068,0.9643
2025-05-09 12:52:03.482841,534.3,0.0361,-0.0183,0.9733
2025-05-09 12:52:03.483330,534.3,0.0361,-0.0183,0.9733
2025-05-09 12:52:03.945512,508.1,0.0341,-0.0146,0.9714
2025-05-09 12:52:03.947751,508.1,0.0341,-0.0146,0.9714
2025-05-09 12:52:04.197147,547.4,0.0429,-0.0065,0.9685
2025-05-09 12:52:04.197913,547.4,0.0429,-0.0065,0.9685
2025-05-09 12:52:04.739724,508.1,0.0371,-0.009,0.968
2025-05-09 12:52:04.740401,508.1,0.0371,-0.009,0.968
2025-05-09 12:52:04.799472,508.1,0.0371,-0.009,0.968
2025-05-09 12:52:04.800168,508.1,0.0371,-0.009,0.968
2025-05-09 12:52:05.099585,495.0,0.0363,-0.0185,0.9648
2025-05-09 12:52:05.100024,495.0,0.0363,-0.0185,0.9648
2025-05-09 12:52:05.161412,495.0,0.0363,-0.0185,0.9648
2025-05-09 12:52:05.356106,508.1,0.0393,-0.0156,0.9736
2025-05-09 12:52:05.393681,508.1,0.0307,-0.0134,0.9631
2025-05-09 12:52:05.394271,508.1,0.0307,-0.0134,0.9631
2025-05-09 12:52:05.542916,521.2,0.0407,-0.0073,0.9838
2025-05-09 12:52:05.543381,521.2,0.0407,-0.0073,0.9838
2025-05-09 12:52:05.582285,521.2,0.0407,-0.0073,0.9838
2025-05-09 12:52:05.582814,521.2,0.0407,-0.0073,0.9838
2025-05-09 12:52:05.837894,481.9,0.0329,-0.0173,0.9672
2025-05-09 12:52:05.838132,481.9,0.0329,-0.0173,0.9672
2025-05-09 12:52:05.995121,468.8,0.0344,-0.0124,0.976
2025-05-09 12:52:05.995377,468.8,0.0344,-0.0124,0.976
2025-05-09 12:52:06.381443,495.0,0.0412,-0.007,0.9655
2025-05-09 12:52:06.381676,495.0,0.0412,-0.007,0.9655
2025-05-09 12:52:06.593074,495.0,0.0363,-0.017,0.9719
2025-05-09 12:52:06.593265,495.0,0.0363,-0.017,0.9719
2025-05-09 12:52:06.786005,481.9,0.0373,-0.0107,0.9726
2025-05-09 12:52:06.786221,481.9,0.0373,-0.0107,0.9726
2025-05-09 12:52:06.987378,481.9,0.0349,-0.0107,0.9838
2025-05-09 12:52:06.987739,481.9,0.0349,-0.0107,0.9838
2025-05-09 12:52:07.082242,481.9,0.0349,-0.0173,0.9692
2025-05-09 12:52:07.082444,481.9,0.0349,-0.0173,0.9692
2025-05-09 12:52:07.206671,495.0,0.0363,-0.01,0.9602
2025-05-09 12:52:07.435227,508.1,0.0344,-0.0163,0.9641
2025-05-09 12:52:07.435471,508.1,0.0344,-0.0163,0.9641
2025-05-09 12:52:07.876360,455.7,0.04,-0.0097,0.9843
2025-05-09 12:52:07.876617,455.7,0.04,-0.0097,0.9843
2025-05-09 12:52:07.984429,468.8,0.0417,-0.0085,0.9697
2025-05-09 12:52:07.985000,468.8,0.0417,-0.0085,0.9697
2025-05-09 12:52:08.385959,495.0,0.0395,-0.0119,0.9675
2025-05-09 12:52:08.386285,495.0,0.0395,-0.0119,0.9675
2025-05-09 12:52:08.393610,495.0,0.0371,-0.0119,0.9677
2025-05-09 12:52:08.393923,495.0,0.0371,-0.0119,0.9677
2025-05-09 12:52:08.734374,495.0,0.0283,-0.018,0.9746
2025-05-09 12:52:08.734713,495.0,0.0283,-0.018,0.9746
2025-05-09 12:52:08.779921,495.0,0.0283,-0.018,0.9746
2025-05-09 12:52:08.780308,495.0,0.0283,-0.018,0.9746
2025-05-09 12:52:08.794260,508.1,0.0356,-0.0104,0.9692
2025-05-09 12:52:08.794610,508.1,0.0356,-0.0104,0.9692
2025-05-09 12:52:08.891450,508.1,0.0363,-0.0161,0.9702
2025-05-09 12:52:08.891983,508.1,0.0363,-0.0161,0.9702
2025-05-09 12:52:09.508661,481.9,0.0397,-0.0183,0.9809
2025-05-09 12:52:09.783823,521.2,0.0344,-0.0114,0.9743
2025-05-09 12:52:09.784882,521.2,0.0344,-0.0114,0.9743
2025-05-09 12:52:09.840470,481.9,0.0407,-0.0163,0.9797
2025-05-09 12:52:09.840672,481.9,0.0407,-0.0163,0.9797
2025-05-09 12:52:09.981880,495.0,-0.0209,0.0751,1.0112
2025-05-09 12:52:09.982207,495.0,-0.0209,0.0751,1.0112
2025-05-09 12:52:10.049514,495.0,0.0334,-0.0097,0.9631
2025-05-09 12:52:10.177390,495.0,0.0375,-0.0083,0.9641
2025-05-09 12:52:10.177575,495.0,0.0375,-0.0083,0.9641
2025-05-09 12:52:10.382609,508.1,0.039,-0.0104,0.9714
2025-05-09 12:52:10.383052,508.1,0.039,-0.0104,0.9714
2025-05-09 12:52:10.454379,534.3,0.0415,-0.0156,0.9604
2025-05-09 12:52:10.454495,534.3,0.0415,-0.0156,0.9604
2025-05-09 12:52:10.533539,508.1,0.0351,-0.0273,0.9685
2025-05-09 12:52:10.533798,508.1,0.0351,-0.0273,0.9685
2025-05-09 12:52:10.985136,481.9,0.0344,-0.0078,0.9655
2025-05-09 12:52:10.985309,481.9,0.0344,-0.0078,0.9655
2025-05-09 12:52:11.099045,534.3,0.0358,-0.0097,0.987
2025-05-09 12:52:11.171726,534.3,0.0358,-0.0097,0.987
2025-05-09 12:52:11.265504,534.3,0.0278,-0.0107,0.9714
2025-05-09 12:52:11.341573,521.2,0.0371,-0.0129,0.9753
2025-05-09 12:52:11.342099,521.2,0.0371,-0.0129,0.9753
2025-05-09 12:52:12.177545,521.2,0.0385,-0.0158,0.9719
2025-05-09 12:52:12.177741,521.2,0.0385,-0.0158,0.9719
2025-05-09 12:52:12.192647,521.2,0.0314,-0.0166,0.9768
2025-05-09 12:52:12.192925,521.2,0.0314,-0.0166,0.9768
2025-05-09 12:52:12.693011,534.3,0.0368,-0.0102,0.9716
2025-05-09 12:52:12.782948,521.2,0.0371,-0.0144,0.9658
2025-05-09 12:52:12.783130,521.2,0.0371,-0.0144,0.9658
2025-05-09 12:52:12.794241,508.1,0.0395,-0.0185,0.9702
2025-05-09 12:52:12.794432,508.1,0.0395,-0.0185,0.9702
2025-05-09 12:52:12.893027,508.1,0.0344,-0.0183,0.9645
2025-05-09 12:52:12.893829,508.1,0.0344,-0.0183,0.9645
2025-05-09 12:52:13.075269,534.3,0.0366,-0.0129,0.9694
2025-05-09 12:52:13.075387,534.3,0.0366,-0.0129,0.9694
2025-05-09 12:52:13.092977,560.5,0.0412,-0.0026,0.9587
2025-05-09 12:52:13.093201,560.5,0.0412,-0.0026,0.9587
2025-05-09 12:52:13.314450,560.5,0.039,-0.008,0.9628
