timestamp,packet_id,pressure,accel_x,accel_y,accel_z
2025-07-16 16:26:27.063567,152,1149.4,-0.0307,0.0476,1.0849
2025-07-16 16:26:27.163567,152,756.2,-0.029,0.0471,1.0793
2025-07-16 16:26:27.263567,152,1149.4,-0.029,0.0466,1.083
2025-07-16 16:26:27.400207,156,756.2,-0.0285,0.0483,1.0837
2025-07-16 16:26:27.500207,156,1018.3,-0.0273,0.0483,1.0905
2025-07-16 16:26:27.600207,156,1018.3,-0.0251,0.0493,1.0812
2025-07-16 16:26:27.798062,158,887.2,-0.029,0.0483,1.0844
2025-07-16 16:26:27.898062,158,1018.3,-0.028,0.0507,1.082
2025-07-16 16:26:27.919614,159,1149.4,-0.0302,0.0495,1.0844
2025-07-16 16:26:28.194574,163,1280.5,-0.0263,0.0488,1.0827
2025-07-16 16:26:28.294574,163,1149.4,-0.0261,0.0478,1.0754
2025-07-16 16:26:28.394574,163,1280.5,-0.0253,0.0471,1.0812
2025-07-16 16:26:28.430975,166,1018.3,-0.0305,0.0524,1.0837
2025-07-16 16:26:28.530975,166,1149.4,-0.0302,0.0515,1.0869
2025-07-16 16:26:28.630975,166,1411.5,-0.0307,0.0456,1.0852
2025-07-16 16:26:28.904658,170,231.9,-0.0322,0.0498,1.0837
2025-07-16 16:26:29.004658,170,756.2,-0.0288,0.0488,1.0849
2025-07-16 16:26:29.104658,170,1149.4,-0.0251,0.0468,1.0737
2025-07-16 16:26:29.114583,172,1149.4,-0.028,0.0483,1.0803
2025-07-16 16:26:29.214583,172,1280.5,-0.031,0.0473,1.0866
2025-07-16 16:26:29.299653,174,1149.4,-0.0307,0.0493,1.0876
2025-07-16 16:26:29.399653,174,1018.3,-0.0341,0.0485,1.0798
2025-07-16 16:26:29.532749,177,1018.3,-0.0329,0.0473,1.0786
2025-07-16 16:26:29.632749,177,1018.3,-0.03,0.0483,1.0854
2025-07-16 16:26:29.732749,177,1149.4,-0.03,0.049,1.0822
2025-07-16 16:26:29.887886,179,1280.5,-0.0302,0.0505,1.0871
2025-07-16 16:26:29.987886,179,1149.4,-0.031,0.0458,1.0861
2025-07-16 16:26:30.059542,180,1411.5,-0.0307,0.052,1.0742
2025-07-16 16:26:30.132948,182,1280.5,-0.0285,0.0444,1.0791
2025-07-16 16:26:30.232948,182,756.2,-0.0278,0.0456,1.08
2025-07-16 16:26:30.312445,183,887.2,-0.0339,0.049,1.0808
2025-07-16 16:26:30.658414,188,756.2,-0.03,0.0478,1.0852
2025-07-16 16:26:30.758414,188,1149.4,-0.03,0.048,1.0815
2025-07-16 16:26:30.858414,188,1804.8,-0.0283,0.0478,1.0817
2025-07-16 16:26:31.253881,194,1018.3,-0.0329,0.048,1.0837
2025-07-16 16:26:31.353881,194,1411.5,-0.0312,0.0468,1.0852
2025-07-16 16:26:31.453881,194,1149.4,-0.0275,0.0473,1.0783
2025-07-16 16:26:31.572098,195,756.2,-0.0297,0.0461,1.0871
2025-07-16 16:26:31.684960,196,1018.3,-0.03,0.0476,1.0871
2025-07-16 16:26:31.731736,198,1673.7,-0.0278,0.0493,1.0834
2025-07-16 16:26:31.831736,198,1804.8,-0.031,0.048,1.0808
2025-07-16 16:26:32.090822,202,1411.5,-0.0307,0.0471,1.0832
2025-07-16 16:26:32.190822,202,1411.5,-0.0263,0.0488,1.0812
2025-07-16 16:26:32.290822,202,1411.5,-0.0336,0.0468,1.0773
2025-07-16 16:26:32.348010,203,1149.4,-0.0263,0.0498,1.0825
2025-07-16 16:26:32.462656,206,1411.5,-0.0261,0.0468,1.0878
2025-07-16 16:26:32.562656,206,1804.8,-0.0317,0.049,1.0864
2025-07-16 16:26:32.662656,206,1673.7,-0.0302,0.0476,1.0791
2025-07-16 16:26:32.783891,207,1673.7,-0.0334,0.0468,1.0834
2025-07-16 16:26:32.799194,208,1673.7,-0.0268,0.0495,1.0808
2025-07-16 16:26:33.004555,211,1411.5,-0.0297,0.0473,1.0817
2025-07-16 16:26:33.104555,211,1542.6,-0.0275,0.048,1.0812
2025-07-16 16:26:33.204555,211,1149.4,-0.0275,0.052,1.0837
2025-07-16 16:26:33.280604,212,1018.3,-0.03,0.0515,1.0839
2025-07-16 16:26:33.338668,213,1411.5,-0.03,0.0502,1.0869
2025-07-16 16:26:33.510035,214,1542.6,-0.0283,0.0471,1.0783
2025-07-16 16:26:33.605528,218,1411.5,-0.0322,0.0495,1.081
2025-07-16 16:26:33.705528,218,1280.5,-0.029,0.0507,1.0834
2025-07-16 16:26:33.805528,218,1149.4,-0.0312,0.0473,1.08
2025-07-16 16:26:33.929450,220,1149.4,-0.0312,0.051,1.08
2025-07-16 16:26:34.029450,220,1280.5,-0.028,0.051,1.0834
2025-07-16 16:26:34.097847,222,1280.5,-0.0292,0.048,1.0893
2025-07-16 16:26:34.197847,222,1149.4,-0.031,0.0454,1.0834
2025-07-16 16:26:34.389833,223,1280.5,-0.0317,0.0468,1.0898
2025-07-16 16:26:34.479815,225,1542.6,-0.0339,0.0471,1.0827
2025-07-16 16:26:34.579815,225,1411.5,-0.0292,0.0444,1.0788
2025-07-16 16:26:35.141002,233,1149.4,-0.027,0.0466,1.0847
2025-07-16 16:26:35.241002,233,1542.6,-0.0244,0.0458,1.0842
2025-07-16 16:26:35.341002,233,1673.7,-0.0319,0.0478,1.0886
2025-07-16 16:26:35.396696,234,1673.7,-0.0324,0.0439,1.0898
2025-07-16 16:26:35.756878,239,1542.6,-0.0288,0.0468,1.0881
2025-07-16 16:26:35.856878,239,1411.5,-0.0266,0.049,1.0888
2025-07-16 16:26:35.956878,239,1673.7,-0.0297,0.0461,1.0817
2025-07-16 16:26:35.998967,240,1542.6,-0.028,0.0498,1.0903
2025-07-16 16:26:36.364065,245,1673.7,-0.028,0.0478,1.0808
2025-07-16 16:26:36.464065,245,1280.5,-0.0268,0.0495,1.0844
2025-07-16 16:26:36.564065,245,1411.5,-0.0292,0.0517,1.0795
2025-07-16 16:26:36.621983,246,1542.6,-0.0307,0.0493,1.0861
2025-07-16 16:26:36.727985,248,1280.5,-0.0329,0.0476,1.0905
2025-07-16 16:26:36.827985,248,1149.4,-0.0302,0.0502,1.0891
2025-07-16 16:26:37.126622,249,1280.5,-0.0312,0.048,1.0859
2025-07-16 16:26:37.599222,2,1411.5,-0.029,0.0461,1.0844
2025-07-16 16:26:37.699222,2,1542.6,-0.0295,0.0476,1.0854
2025-07-16 16:26:37.799222,2,1935.8,-0.028,0.0461,1.083
2025-07-16 16:26:37.925962,4,1673.7,-0.0283,0.0485,1.082
2025-07-16 16:26:38.025962,4,1280.5,-0.03,0.0483,1.0825
2025-07-16 16:26:38.177284,7,1673.7,-0.0302,0.0466,1.0783
2025-07-16 16:26:38.277284,7,1804.8,-0.0266,0.0473,1.0798
2025-07-16 16:26:38.377284,7,1411.5,-0.029,0.0505,1.0825
2025-07-16 16:26:38.778086,13,1411.5,-0.0295,0.0495,1.0808
2025-07-16 16:26:38.878086,13,1411.5,-0.0273,0.0502,1.0778
2025-07-16 16:26:38.978086,13,1542.6,-0.0283,0.0495,1.0834
2025-07-16 16:26:39.028705,16,1411.5,-0.0358,0.0473,1.0893
2025-07-16 16:26:39.128705,16,1411.5,-0.0324,0.0473,1.0888
2025-07-16 16:26:39.228705,16,1673.7,-0.0302,0.0488,1.0839
2025-07-16 16:26:39.325433,19,1280.5,-0.0322,0.0449,1.0791
2025-07-16 16:26:39.425433,19,1280.5,-0.0297,0.0488,1.082
2025-07-16 16:26:39.525433,19,1542.6,-0.0305,0.0507,1.0837
2025-07-16 16:26:39.626828,20,1542.6,-0.0288,0.0463,1.0864
2025-07-16 16:26:39.726999,22,1673.7,-0.0273,0.0515,1.081
2025-07-16 16:26:39.826999,22,1673.7,-0.0275,0.0473,1.0859
2025-07-16 16:26:39.981893,25,1673.7,-0.0302,0.0478,1.0832
2025-07-16 16:26:40.081893,25,1542.6,-0.0302,0.0485,1.0849
2025-07-16 16:26:40.181893,25,1673.7,-0.031,0.0456,1.0817
2025-07-16 16:26:40.234109,28,1542.6,-0.0305,0.0483,1.0854
2025-07-16 16:26:40.334109,28,1280.5,-0.0266,0.0483,1.0834
2025-07-16 16:26:40.434109,28,1542.6,-0.0295,0.0468,1.0832
2025-07-16 16:26:41.634794,41,1804.8,-0.028,0.0478,1.0866
2025-07-16 16:26:41.734794,41,1935.8,-0.0275,0.0446,1.0878
2025-07-16 16:26:41.834794,41,1804.8,-0.028,0.0483,1.0878
2025-07-16 16:26:42.412891,49,1673.7,-0.027,0.0493,1.0847
2025-07-16 16:26:42.512891,49,1673.7,-0.0288,0.049,1.0791
2025-07-16 16:26:42.612891,49,1673.7,-0.0275,0.0439,1.0856
2025-07-16 16:26:42.696717,52,1411.5,-0.0292,0.0449,1.0832
2025-07-16 16:26:42.796717,52,1542.6,-0.0292,0.0468,1.0878
2025-07-16 16:26:42.896717,52,1804.8,-0.027,0.0507,1.0881
2025-07-16 16:26:42.912629,53,1673.7,-0.03,0.0493,1.0783
2025-07-16 16:26:43.096543,54,1673.7,-0.0307,0.0451,1.0874
2025-07-16 16:26:43.096878,55,1804.8,-0.028,0.0463,1.0788
2025-07-16 16:26:44.221558,68,1280.5,-0.0327,0.049,1.0859
2025-07-16 16:26:44.321558,68,1673.7,-0.031,0.0483,1.0852
2025-07-16 16:26:44.421558,68,1673.7,-0.0302,0.0488,1.0893
2025-07-16 16:26:44.496303,71,1804.8,-0.0307,0.0458,1.083
2025-07-16 16:26:44.596303,71,1804.8,-0.0285,0.0456,1.0839
2025-07-16 16:26:44.696303,71,1542.6,-0.0283,0.0488,1.081
2025-07-16 16:26:45.024042,74,1542.6,-0.0339,0.0471,1.0852
2025-07-16 16:26:45.124042,74,1411.5,-0.0268,0.0505,1.0773
2025-07-16 16:26:45.224042,74,1542.6,-0.03,0.0471,1.0812
2025-07-16 16:26:45.128441,76,1673.7,-0.0273,0.05,1.0827
2025-07-16 16:26:45.228441,76,1673.7,-0.0258,0.0471,1.0778
2025-07-16 16:26:45.680788,82,1411.5,-0.0297,0.0476,1.082
2025-07-16 16:26:45.780788,82,1804.8,-0.0285,0.05,1.0832
2025-07-16 16:26:45.880788,82,1935.8,-0.0283,0.0502,1.081
2025-07-16 16:26:46.256764,88,1542.6,-0.0295,0.0534,1.0839
2025-07-16 16:26:46.356764,88,1411.5,-0.0305,0.0473,1.0751
2025-07-16 16:26:46.456764,88,1280.5,-0.0307,0.0483,1.0812
2025-07-16 16:26:46.898817,95,1411.5,-0.0314,0.051,1.0856
2025-07-16 16:26:46.998817,95,1149.4,-0.0344,0.0466,1.0871
2025-07-16 16:26:47.098817,95,1018.3,-0.0297,0.0473,1.0874
2025-07-16 16:26:47.288782,97,1280.5,-0.0295,0.0451,1.0861
2025-07-16 16:26:47.388782,97,1542.6,-0.0297,0.0507,1.0883
2025-07-16 16:26:47.634340,98,1411.5,-0.0273,0.0478,1.0886
2025-07-16 16:26:47.772920,103,1280.5,-0.031,0.05,1.0771
2025-07-16 16:26:47.872920,103,1411.5,-0.0319,0.0488,1.0849
2025-07-16 16:26:47.972920,103,1673.7,-0.0266,0.0524,1.0815
2025-07-16 16:26:48.027144,104,1935.8,-0.0283,0.05,1.0861
2025-07-16 16:26:48.127547,106,1804.8,-0.0302,0.0478,1.0795
2025-07-16 16:26:48.227547,106,1411.5,-0.0285,0.049,1.0847
2025-07-16 16:26:48.397642,110,1280.5,-0.03,0.052,1.0864
2025-07-16 16:26:48.497642,110,1149.4,-0.029,0.048,1.0798
2025-07-16 16:26:48.597642,110,1280.5,-0.027,0.05,1.0849
2025-07-16 16:26:48.733038,112,1542.6,-0.0314,0.0454,1.0815
2025-07-16 16:26:48.833038,112,1542.6,-0.028,0.0505,1.0825
2025-07-16 16:26:49.134717,113,1673.7,-0.0251,0.0441,1.0847
2025-07-16 16:26:49.587202,121,1018.3,-0.0261,0.0498,1.0883
2025-07-16 16:26:49.687202,121,1149.4,-0.029,0.048,1.0837
2025-07-16 16:26:49.787202,121,1280.5,-0.0307,0.0441,1.0854
2025-07-16 16:26:49.798615,122,1411.5,-0.027,0.0461,1.0837
2025-07-16 16:26:50.123348,125,1411.5,-0.029,0.0485,1.0778
2025-07-16 16:26:50.223348,125,1411.5,-0.0268,0.0471,1.0832
2025-07-16 16:26:50.323348,125,1542.6,-0.031,0.0461,1.0791
2025-07-16 16:26:50.281243,127,1542.6,-0.0278,0.0473,1.0861
2025-07-16 16:26:50.381243,127,1411.5,-0.0312,0.048,1.0876
2025-07-16 16:26:50.457583,130,1149.4,-0.031,0.0451,1.0827
2025-07-16 16:26:50.557583,130,1280.5,-0.0307,0.0488,1.0849
2025-07-16 16:26:50.657583,130,1280.5,-0.0258,0.0505,1.0847
2025-07-16 16:26:50.698988,131,1149.4,-0.0324,0.0505,1.0839
2025-07-16 16:26:51.358721,139,1411.5,-0.0852,0.195,0.8693
2025-07-16 16:26:51.458721,139,1280.5,-0.1601,0.2797,1.226
2025-07-16 16:26:51.558721,139,887.2,-0.2358,0.3051,0.9597
2025-07-16 16:26:51.636800,140,756.2,-0.2836,0.3129,0.9423
2025-07-16 16:26:51.727307,143,887.2,-0.258,0.3071,1.0612
2025-07-16 16:26:51.827307,143,887.2,-0.2121,0.2814,0.926
2025-07-16 16:26:51.927307,143,1018.3,-0.174,0.2626,1.0141
2025-07-16 16:26:51.997624,146,1411.5,-0.225,0.3015,1.0556
2025-07-16 16:26:52.097624,146,1673.7,-0.2263,0.2138,0.7697
2025-07-16 16:26:52.197624,146,1542.6,-0.311,0.3828,0.8789
2025-07-16 16:26:52.344122,148,1018.3,-0.4321,0.4267,0.9145
2025-07-16 16:26:52.444122,148,1149.4,-0.3715,0.4431,0.8569
2025-07-16 16:26:52.626183,152,1018.3,-0.3666,0.4416,0.9416
2025-07-16 16:26:52.726183,152,1018.3,-0.478,0.4106,0.9304
2025-07-16 16:26:52.826183,152,1018.3,-0.3024,0.5148,0.8171
2025-07-16 16:26:52.896506,155,1149.4,-0.342,0.4509,0.84
2025-07-16 16:26:52.996506,155,1149.4,-0.3212,0.5881,0.7519
2025-07-16 16:26:53.096506,155,887.2,-0.3444,0.489,0.9121
2025-07-16 16:26:54.622635,172,1542.6,-0.3571,0.4306,0.8779
2025-07-16 16:26:54.722635,172,1280.5,-0.3361,0.4641,0.9052
2025-07-16 16:26:54.822635,172,1411.5,-0.2998,0.5351,0.9448
2025-07-16 16:26:54.896147,173,1411.5,-0.3151,0.4582,0.927
2025-07-16 16:26:54.997215,176,1411.5,-0.3,0.4724,0.9067
2025-07-16 16:26:55.097215,176,1280.5,-0.3701,0.4338,0.9023
2025-07-16 16:26:55.197215,176,1149.4,-0.3215,0.4672,0.8747
2025-07-16 16:26:55.298482,179,1411.5,-0.3115,0.3652,0.9265
2025-07-16 16:26:55.398482,179,1542.6,-0.3083,0.5151,1.0021
2025-07-16 16:26:55.498482,179,1542.6,-0.2448,0.5141,0.9045
2025-07-16 16:26:55.883724,184,1018.3,-0.2431,0.4902,0.9047
2025-07-16 16:26:55.983724,184,756.2,-0.2666,0.4916,0.8977
2025-07-16 16:26:56.083724,184,1149.4,-0.3654,0.5175,1.04
2025-07-16 16:26:56.186451,187,1411.5,-0.2011,0.5117,0.8764
2025-07-16 16:26:56.286451,187,1280.5,-0.2094,0.5185,0.9064
2025-07-16 16:26:56.386451,187,1018.3,-0.2124,0.5092,0.9135
2025-07-16 16:26:56.439761,188,887.2,-0.2102,0.5024,0.9257
2025-07-16 16:26:57.042286,196,887.2,-0.2062,0.4792,0.9284
2025-07-16 16:26:57.142286,196,756.2,-0.2094,0.4792,0.9235
2025-07-16 16:26:57.242286,196,887.2,-0.2089,0.4775,0.9357
2025-07-16 16:26:58.562001,211,1411.5,-0.2065,0.4689,0.9355
2025-07-16 16:26:58.662001,211,1018.3,-0.2084,0.4655,0.9321
2025-07-16 16:26:58.762001,211,1149.4,-0.2094,0.4604,0.9326
2025-07-16 16:26:59.025802,212,1018.3,-0.2109,0.458,0.9389
2025-07-16 16:26:58.932477,214,887.2,-0.217,0.4609,0.9428
2025-07-16 16:26:59.032477,214,1149.4,-0.2092,0.4621,0.9506
2025-07-16 16:26:59.121401,217,1018.3,-0.2109,0.4589,0.9472
2025-07-16 16:26:59.221401,217,1018.3,-0.2102,0.4575,0.9453
2025-07-16 16:26:59.321401,217,1018.3,-0.2145,0.4479,0.9426
2025-07-16 16:26:59.778328,223,1018.3,-0.2094,0.4443,0.946
2025-07-16 16:26:59.878328,223,1542.6,-0.2133,0.4399,0.9528
2025-07-16 16:26:59.978328,223,1935.8,-0.2124,0.4426,0.9516
2025-07-16 16:27:00.007459,224,1280.5,-0.2148,0.4414,0.9506
2025-07-16 16:27:00.159014,226,1411.5,-0.2141,0.4377,0.9575
2025-07-16 16:27:00.259014,226,1804.8,-0.2077,0.4458,0.9631
2025-07-16 16:27:00.425228,230,1411.5,-0.2116,0.4362,0.9592
2025-07-16 16:27:00.525228,230,1280.5,-0.2021,0.4343,0.9497
2025-07-16 16:27:00.625228,230,887.2,-0.2111,0.4316,0.9619
2025-07-16 16:27:00.729480,232,1149.4,-0.207,0.4353,0.9562
2025-07-16 16:27:00.829480,232,1542.6,-0.2143,0.4389,0.9594
2025-07-16 16:27:01.049578,236,1149.4,-0.2072,0.4328,0.957
2025-07-16 16:27:01.149578,236,1542.6,-0.2084,0.4338,0.9599
2025-07-16 16:27:01.249578,236,1411.5,-0.2067,0.4265,0.9619
2025-07-16 16:27:01.630124,242,1018.3,-0.1931,0.4074,0.9545
2025-07-16 16:27:01.730124,242,1018.3,-0.1848,0.4152,0.9672
2025-07-16 16:27:01.830124,242,1018.3,-0.2028,0.4047,0.9804
2025-07-16 16:27:02.128820,247,1149.4,-0.1525,0.3847,0.9643
2025-07-16 16:27:02.228820,247,1280.5,-0.1362,0.4013,0.9599
2025-07-16 16:27:02.328820,247,1280.5,-0.1728,0.4042,0.9787
2025-07-16 16:27:02.457600,250,1018.3,-0.1701,0.4033,0.9565
2025-07-16 16:27:02.557600,250,1018.3,-0.1572,0.4138,0.9797
2025-07-16 16:27:02.657600,250,1149.4,-0.1499,0.4145,0.9843
2025-07-16 16:27:02.827175,254,887.2,-0.1318,0.4196,0.9599
2025-07-16 16:27:02.927175,254,1018.3,-0.1289,0.4318,0.9699
2025-07-16 16:27:03.027175,254,1411.5,-0.1257,0.4355,0.9731
2025-07-16 16:27:03.377682,3,1411.5,-0.1489,0.4272,0.9445
2025-07-16 16:27:03.477682,3,1411.5,-0.1584,0.3945,0.9687
2025-07-16 16:27:03.577682,3,1280.5,-0.1479,0.3298,1.1052
2025-07-16 16:27:03.598968,4,1149.4,-0.0671,0.3259,1.0544
2025-07-16 16:27:04.298776,13,1411.5,0.1755,0.457,0.914
2025-07-16 16:27:04.398776,13,1542.6,0.2705,0.5632,1.0097
2025-07-16 16:27:04.498776,13,1280.5,0.1416,0.5925,0.8852
2025-07-16 16:27:04.854909,18,1149.4,0.2319,0.729,0.902
2025-07-16 16:27:04.954909,18,887.2,0.0007,0.7033,0.7971
2025-07-16 16:27:05.054909,18,1411.5,0.059,0.6721,0.8203
2025-07-16 16:27:05.425648,24,1018.3,-0.0664,0.6997,0.8706
2025-07-16 16:27:05.525648,24,1018.3,0.0043,0.6755,0.7934
2025-07-16 16:27:05.625648,24,1018.3,0.0017,0.6477,0.7495
2025-07-16 16:27:06.422672,34,1411.5,-0.164,0.6606,0.6689
2025-07-16 16:27:06.522672,34,887.2,-0.2814,0.7109,0.6611
2025-07-16 16:27:06.622672,34,887.2,-0.3625,0.6835,0.6289
2025-07-16 16:27:06.998759,39,1280.5,-0.4221,0.5886,0.6611
2025-07-16 16:27:07.098759,39,1280.5,-0.5708,0.5993,0.7031
2025-07-16 16:27:07.198759,39,1280.5,-0.5651,0.5109,0.7717
2025-07-16 16:27:07.250853,42,1411.5,-0.4604,0.2905,0.8117
2025-07-16 16:27:07.350853,42,1411.5,-0.4838,0.2651,0.9575
2025-07-16 16:27:07.450853,42,1542.6,-0.374,0.2617,0.9257
2025-07-16 16:27:08.126674,51,1542.6,-0.1289,0.1718,1.0559
2025-07-16 16:27:08.226674,51,1411.5,-0.1264,0.1779,1.0747
2025-07-16 16:27:08.326674,51,1018.3,-0.1423,0.1901,1.0747
2025-07-16 16:27:09.121849,60,1018.3,-0.4025,0.2524,1.2492
2025-07-16 16:27:09.221849,60,1149.4,-0.3161,0.1313,0.7817
2025-07-16 16:27:09.321849,60,1149.4,-0.5717,0.1894,1.1347
2025-07-16 16:27:09.712306,66,1280.5,-0.3208,0.2409,0.8579
2025-07-16 16:27:09.812306,66,1280.5,-0.2436,0.4316,0.946
2025-07-16 16:27:09.912306,66,1280.5,-0.1894,0.4333,0.9494
2025-07-16 16:27:10.567907,75,1149.4,-0.3654,0.3786,0.8911
2025-07-16 16:27:10.667907,75,1542.6,-0.3298,0.227,0.9104
2025-07-16 16:27:10.767907,75,1542.6,-0.354,0.248,0.9003
2025-07-16 16:27:10.888892,78,1280.5,-0.373,0.3146,0.9338
2025-07-16 16:27:10.988892,78,1542.6,-0.4042,0.3034,0.9765
2025-07-16 16:27:11.088892,78,1542.6,-0.3557,0.186,0.9516
2025-07-16 16:27:11.780604,87,887.2,-0.3469,0.2834,0.9658
2025-07-16 16:27:11.880604,87,1149.4,-0.353,0.279,0.9633
2025-07-16 16:27:11.980604,87,1411.5,-0.3486,0.2753,0.9594
2025-07-16 16:27:12.013310,88,1411.5,-0.3527,0.2751,0.9763
2025-07-16 16:27:12.628050,94,1411.5,-0.3632,0.2753,0.976
2025-07-16 16:27:12.728050,94,1411.5,-0.3623,0.2797,0.9597
2025-07-16 16:27:12.828050,94,1149.4,-0.3681,0.2778,0.9667
2025-07-16 16:27:12.943607,99,1280.5,-0.3708,0.2724,0.9614
2025-07-16 16:27:13.043607,99,1280.5,-0.3659,0.2741,0.9697
2025-07-16 16:27:13.143607,99,1411.5,-0.3771,0.2707,0.9682
2025-07-16 16:27:14.226289,112,1280.5,-0.3769,0.2744,0.9523
2025-07-16 16:27:14.326289,112,1411.5,-0.3876,0.2744,0.9519
2025-07-16 16:27:14.426289,112,1411.5,-0.3852,0.2775,0.956
2025-07-16 16:27:15.386158,123,1542.6,-0.382,0.2719,0.9582
2025-07-16 16:27:15.486158,123,1542.6,-0.3752,0.2712,0.9504
2025-07-16 16:27:15.586158,123,1673.7,-0.383,0.2734,0.947
2025-07-16 16:27:15.663288,126,1411.5,-0.3818,0.2792,0.9587
2025-07-16 16:27:15.763288,126,1149.4,-0.3798,0.2773,0.9475
2025-07-16 16:27:15.863288,126,1280.5,-0.3867,0.2731,0.9533
2025-07-16 16:27:16.961953,139,1542.6,-0.3837,0.2751,0.9504
2025-07-16 16:27:17.061953,139,1280.5,-0.3815,0.2729,0.957
2025-07-16 16:27:17.161953,139,1149.4,-0.3862,0.2719,0.9575
2025-07-16 16:27:17.196050,142,1280.5,-0.3823,0.27,0.9682
2025-07-16 16:27:17.296050,142,1280.5,-0.3908,0.2722,0.9711
2025-07-16 16:27:17.396050,142,1280.5,-0.3791,0.2717,0.9545
2025-07-16 16:27:18.657687,156,887.2,-0.2109,0.2854,1.0273
2025-07-16 16:27:18.757687,156,887.2,-0.103,0.3264,0.9973
2025-07-16 16:27:18.857687,156,887.2,0.0541,0.3457,1.0175
2025-07-16 16:27:18.984223,159,1149.4,0.1667,0.4333,1.0085
2025-07-16 16:27:19.084223,159,887.2,0.1748,0.4809,0.9692
2025-07-16 16:27:19.184223,159,1149.4,0.1972,0.5207,0.9069
2025-07-16 16:27:19.567129,165,1542.6,-0.1083,0.7133,0.821
2025-07-16 16:27:19.667129,165,1411.5,0.1157,0.6235,0.9328
2025-07-16 16:27:19.767129,165,1411.5,0.0932,0.8283,0.6181
2025-07-16 16:27:20.500120,174,1280.5,-0.1213,0.5307,0.895
2025-07-16 16:27:20.600120,174,1542.6,-0.269,0.6352,0.9821
2025-07-16 16:27:20.700120,174,1542.6,-0.3146,0.5,0.8793
2025-07-16 16:27:20.727411,177,1542.6,-0.4389,0.4404,0.8269
2025-07-16 16:27:20.827411,177,1542.6,-0.5339,0.4042,0.9492
2025-07-16 16:27:20.927411,177,1542.6,-0.4235,0.4414,0.7973
2025-07-16 16:27:21.723638,187,1018.3,-0.248,0.5317,0.8923
2025-07-16 16:27:21.823638,187,1018.3,-0.1608,0.666,0.5
2025-07-16 16:27:21.923638,187,1411.5,-0.0869,0.7243,0.7812
2025-07-16 16:27:21.997918,190,1673.7,-0.2453,0.6892,0.7355
2025-07-16 16:27:22.097918,190,1411.5,-0.1528,0.5551,0.8168
2025-07-16 16:27:22.197918,190,1542.6,-0.2302,0.5783,0.9409
2025-07-16 16:27:22.349978,192,1542.6,-0.1684,0.676,0.9003
2025-07-16 16:27:22.449978,192,1804.8,-0.2346,0.7163,0.7512
2025-07-16 16:27:22.559772,195,1673.7,-0.2299,0.6469,0.8691
2025-07-16 16:27:22.659772,195,1411.5,-0.3288,0.5732,0.8635
2025-07-16 16:27:22.759772,195,1542.6,-0.3852,0.5576,0.8068
2025-07-16 16:27:22.854478,198,1280.5,-0.5073,0.5354,0.811
2025-07-16 16:27:22.954478,198,1149.4,-0.4687,0.5173,0.7595
2025-07-16 16:27:23.054478,198,1149.4,-0.4736,0.5368,0.8288
2025-07-16 16:27:23.786538,207,1149.4,-0.3015,0.5004,0.9111
2025-07-16 16:27:23.886538,207,1673.7,-0.2424,0.4467,0.9509
2025-07-16 16:27:23.986538,207,1935.8,-0.2395,0.4343,0.944
2025-07-16 16:27:24.026684,208,1804.8,-0.2304,0.4301,0.9667
2025-07-16 16:27:24.129992,210,2066.9,-0.2351,0.3906,0.9069
2025-07-16 16:27:24.229992,210,2066.9,-0.311,0.3576,1.0502
2025-07-16 16:27:24.297132,211,1673.7,-0.2558,0.3259,0.936
2025-07-16 16:27:24.398610,214,1411.5,-0.2626,0.3308,0.9943
2025-07-16 16:27:24.498610,214,1411.5,-0.2365,0.3041,1.0266
2025-07-16 16:27:24.598610,214,1542.6,-0.2211,0.2949,0.9982
2025-07-16 16:27:24.953320,219,1673.7,-0.1711,0.3962,1.017
2025-07-16 16:27:25.053320,219,1542.6,-0.152,0.4399,0.9357
2025-07-16 16:27:25.153320,219,1280.5,-0.1716,0.4924,0.8845
2025-07-16 16:27:25.525691,225,1411.5,-0.2385,0.496,1.031
2025-07-16 16:27:25.625691,225,1411.5,-0.2055,0.5231,0.7436
2025-07-16 16:27:25.725691,225,1411.5,-0.268,0.5039,0.9291
2025-07-16 16:27:25.829149,226,1149.4,-0.2915,0.5083,0.8142
2025-07-16 16:27:25.929121,229,1542.6,-0.3635,0.4631,1.0092
2025-07-16 16:27:26.029121,229,1673.7,-0.3005,0.4179,0.9775
2025-07-16 16:27:26.129121,229,1280.5,-0.2155,0.4038,0.8996
2025-07-16 16:27:26.422005,234,1280.5,-0.2578,0.3754,0.8884
2025-07-16 16:27:26.522005,234,1411.5,-0.3247,0.4255,1.0275
2025-07-16 16:27:26.622005,234,1542.6,-0.2968,0.4172,0.986
2025-07-16 16:27:26.696089,235,1411.5,-0.2722,0.392,0.924
2025-07-16 16:27:26.892656,237,1411.5,-0.2534,0.3752,0.9621
2025-07-16 16:27:26.992656,237,1804.8,-0.2597,0.372,0.9484
2025-07-16 16:27:27.025385,238,1542.6,-0.2277,0.383,1.019
2025-07-16 16:27:27.158231,240,1149.4,-0.2307,0.3618,1.0156
2025-07-16 16:27:27.258231,240,1411.5,-0.1945,0.3537,1.0209
2025-07-16 16:27:27.325081,243,1411.5,-0.2404,0.4062,0.975
2025-07-16 16:27:27.425081,243,1280.5,-0.2675,0.3586,1.2119
2025-07-16 16:27:27.525081,243,1542.6,-0.1975,0.5751,0.7053
2025-07-16 16:27:27.621159,244,1673.7,-0.2934,0.5522,0.8928
2025-07-16 16:27:27.989292,249,1018.3,-0.3996,0.6157,0.7087
2025-07-16 16:27:28.089292,249,1149.4,-0.4096,0.6779,0.6828
2025-07-16 16:27:28.189292,249,1280.5,-0.2907,0.6906,0.625
2025-07-16 16:27:28.225605,252,1280.5,-0.34,0.7011,0.6701
2025-07-16 16:27:28.325605,252,1018.3,-0.4797,0.7573,0.5385
2025-07-16 16:27:28.425605,252,1149.4,-0.4477,0.7478,0.5231
2025-07-16 16:27:28.495991,253,1149.4,-0.59,0.676,0.5966
2025-07-16 16:27:28.628477,255,1149.4,-0.5949,0.6677,0.5383
2025-07-16 16:27:28.728477,255,1149.4,-0.635,0.6472,0.496
2025-07-16 16:27:28.868515,2,1411.5,-0.6423,0.5668,0.4309
2025-07-16 16:27:28.968515,2,1280.5,-0.7302,0.486,0.5512
2025-07-16 16:27:29.068515,2,756.2,-0.7912,0.4431,0.4653
2025-07-16 16:27:29.158671,5,756.2,-0.7729,0.4128,0.3981
2025-07-16 16:27:29.258671,5,887.2,-0.9455,0.4138,0.4323
2025-07-16 16:27:29.358671,5,887.2,-0.7744,0.4179,0.4663
2025-07-16 16:27:29.758402,11,887.2,-0.8271,0.3474,0.4748
2025-07-16 16:27:29.858402,11,625.1,-0.8325,0.3371,0.4887
2025-07-16 16:27:29.958402,11,756.2,-0.8068,0.3146,0.538
2025-07-16 16:27:30.393239,17,887.2,-0.7509,0.2924,0.6042
2025-07-16 16:27:30.493239,17,1149.4,-0.768,0.2687,0.6694
2025-07-16 16:27:30.593239,17,1280.5,-0.7416,0.2897,0.6455
2025-07-16 16:27:30.995888,24,887.2,-0.696,0.2827,0.6872
2025-07-16 16:27:31.095888,24,1018.3,-0.7053,0.2849,0.6916
2025-07-16 16:27:31.195888,24,756.2,-0.6875,0.2897,0.6948
2025-07-16 16:27:31.343974,26,1018.3,-0.6936,0.2849,0.7006
2025-07-16 16:27:31.443974,26,1149.4,-0.6865,0.279,0.7092
2025-07-16 16:27:31.599778,30,494.0,-0.6904,0.2626,0.7392
2025-07-16 16:27:31.699778,30,887.2,-0.6872,0.2558,0.7236
2025-07-16 16:27:31.799778,30,1411.5,-0.6821,0.2597,0.749
2025-07-16 16:27:33.079437,44,1149.4,-0.3654,0.2055,0.9672
2025-07-16 16:27:33.179437,44,1280.5,-0.3676,0.2055,0.9821
2025-07-16 16:27:33.279437,44,1411.5,-0.3833,0.2089,1.0068
2025-07-16 16:27:33.407817,48,1280.5,-0.3808,0.2065,0.9694
2025-07-16 16:27:33.507817,48,1018.3,-0.3664,0.2006,0.9914
2025-07-16 16:27:33.607817,48,1018.3,-0.3588,0.2001,1.0319
2025-07-16 16:27:33.785792,50,1411.5,-0.384,0.2182,0.9692
2025-07-16 16:27:33.885792,50,1280.5,-0.3603,0.1877,0.9829
2025-07-16 16:27:33.924607,53,1149.4,-0.3815,0.2026,0.9692
2025-07-16 16:27:34.024607,53,1149.4,-0.3618,0.2124,0.955
2025-07-16 16:27:34.124607,53,1411.5,-0.3979,0.2111,0.9775
2025-07-16 16:27:34.227316,56,1411.5,-0.364,0.2072,0.9465
2025-07-16 16:27:34.327316,56,1411.5,-0.3691,0.2084,0.9609
2025-07-16 16:27:34.427316,56,1149.4,-0.3754,0.196,0.9799
2025-07-16 16:27:35.197591,65,1149.4,-0.394,0.1799,0.9604
2025-07-16 16:27:35.297591,65,1411.5,-0.4167,0.1796,0.9907
2025-07-16 16:27:35.397591,65,1149.4,-0.3835,0.1787,0.9743
2025-07-16 16:27:35.398305,66,1149.4,-0.3952,0.1796,0.9702
2025-07-16 16:27:35.553267,68,1280.5,-0.393,0.1701,0.9897
2025-07-16 16:27:35.653267,68,1280.5,-0.3972,0.174,0.9716
2025-07-16 16:27:36.082913,74,1411.5,-0.3977,0.1667,0.9653
2025-07-16 16:27:36.182913,74,1149.4,-0.394,0.1684,0.975
2025-07-16 16:27:36.282913,74,1280.5,-0.3977,0.1643,0.9663
2025-07-16 16:27:36.309802,75,1018.3,-0.3986,0.1699,0.9821
2025-07-16 16:27:36.462433,77,887.2,-0.3955,0.1687,0.9814
2025-07-16 16:27:36.562433,77,1149.4,-0.3984,0.1667,0.9663
2025-07-16 16:27:36.701574,80,1280.5,-0.3994,0.1711,0.9831
2025-07-16 16:27:36.801574,80,1411.5,-0.3906,0.1708,0.9838
2025-07-16 16:27:36.901574,80,1149.4,-0.4016,0.1699,0.9741
2025-07-16 16:27:36.951108,83,1018.3,-0.4035,0.1701,0.9643
2025-07-16 16:27:37.051108,83,1280.5,-0.4038,0.1674,0.9572
2025-07-16 16:27:37.151108,83,1411.5,-0.3984,0.1716,0.9719
2025-07-16 16:27:37.257521,86,1149.4,-0.404,0.1635,0.966
2025-07-16 16:27:37.357521,86,1018.3,-0.4069,0.1638,0.9741
2025-07-16 16:27:37.457521,86,1018.3,-0.4089,0.1657,0.9719
2025-07-16 16:27:37.577614,87,1149.4,-0.402,0.1679,0.9606
2025-07-16 16:27:37.898702,93,756.2,-0.4086,0.1647,0.9758
2025-07-16 16:27:37.998702,93,887.2,-0.4013,0.1672,0.9892
2025-07-16 16:27:38.098702,93,1018.3,-0.4052,0.1645,0.9814
2025-07-16 16:27:38.426097,98,1149.4,-0.4064,0.1623,0.9746
2025-07-16 16:27:38.526097,98,756.2,-0.4003,0.1616,0.9677
2025-07-16 16:27:38.626097,98,887.2,-0.3989,0.1643,0.9787
2025-07-16 16:27:39.348697,107,1411.5,-0.3999,0.1599,0.9838
2025-07-16 16:27:39.448697,107,1411.5,-0.4006,0.1625,0.9733
2025-07-16 16:27:39.548697,107,1280.5,-0.4001,0.1672,0.9833
2025-07-16 16:27:40.265828,116,1149.4,-0.3894,0.1604,0.9685
2025-07-16 16:27:40.365828,116,1018.3,-0.3972,0.1584,0.9772
2025-07-16 16:27:40.465828,116,1149.4,-0.3952,0.1564,0.9919
2025-07-16 16:27:41.023561,124,887.2,-0.3977,0.1601,0.9697
2025-07-16 16:27:41.123561,124,887.2,-0.4104,0.1577,0.968
2025-07-16 16:27:41.223561,124,1018.3,-0.3884,0.1708,0.9873
2025-07-16 16:27:41.296643,125,1018.3,-0.3964,0.164,0.9736
2025-07-16 16:27:41.768409,131,887.2,-0.3986,0.1584,0.9719
2025-07-16 16:27:41.868409,131,1149.4,-0.3945,0.1596,0.9765
2025-07-16 16:27:41.968409,131,1149.4,-0.4003,0.1594,0.9689
2025-07-16 16:27:42.072634,134,1149.4,-0.3974,0.1586,0.9755
2025-07-16 16:27:42.172634,134,625.1,-0.3964,0.1616,0.9768
2025-07-16 16:27:42.272634,134,887.2,-0.3984,0.1586,0.9833
2025-07-16 16:27:42.298615,135,1411.5,-0.3969,0.1577,0.968
2025-07-16 16:27:42.709347,141,887.2,-0.4008,0.1577,0.9663
2025-07-16 16:27:42.809347,141,1018.3,-0.4033,0.1608,0.9748
2025-07-16 16:27:42.909347,141,756.2,-0.4028,0.1604,0.9736
2025-07-16 16:27:43.023144,143,1018.3,-0.3908,0.1621,0.9846
2025-07-16 16:27:43.123144,143,1280.5,-0.4045,0.1596,0.9731
2025-07-16 16:27:43.210499,144,1149.4,-0.3955,0.1677,0.9738
2025-07-16 16:27:43.310256,147,1149.4,-0.3901,0.1618,0.9833
2025-07-16 16:27:43.410256,147,1411.5,-0.4018,0.1628,0.9702
2025-07-16 16:27:43.510256,147,1018.3,-0.3962,0.1672,0.9699
2025-07-16 16:27:43.689733,149,887.2,-0.4011,0.1528,0.9685
2025-07-16 16:27:43.789733,149,1018.3,-0.3996,0.1613,0.9882
2025-07-16 16:27:43.885433,152,1149.4,-0.3908,0.1628,0.9636
2025-07-16 16:27:43.985433,152,756.2,-0.3979,0.1577,0.9719
2025-07-16 16:27:44.085433,152,494.0,-0.3979,0.1606,0.9826
2025-07-16 16:27:44.149929,155,1018.3,-0.3942,0.1643,0.9726
2025-07-16 16:27:44.249929,155,1280.5,-0.3933,0.1584,0.9895
2025-07-16 16:27:44.349929,155,1018.3,-0.4008,0.1604,0.9807
2025-07-16 16:27:44.723494,161,887.2,-0.4013,0.1533,0.9814
2025-07-16 16:27:44.823494,161,756.2,-0.3979,0.1542,0.9924
2025-07-16 16:27:44.923494,161,887.2,-0.3972,0.1645,0.9748
2025-07-16 16:27:45.030613,164,1149.4,-0.3898,0.1608,0.9709
2025-07-16 16:27:45.130613,164,887.2,-0.3942,0.1591,0.967
2025-07-16 16:27:45.230613,164,887.2,-0.3959,0.1582,0.9738
2025-07-16 16:27:45.298511,165,1018.3,-0.3979,0.1586,0.9838
2025-07-16 16:27:45.424953,167,887.2,-0.3979,0.1579,0.9768
2025-07-16 16:27:45.524953,167,1149.4,-0.3964,0.1572,0.9572
2025-07-16 16:27:45.925865,173,887.2,-0.3923,0.1579,0.9797
2025-07-16 16:27:46.025865,173,625.1,-0.3891,0.1611,0.9743
2025-07-16 16:27:46.125865,173,625.1,-0.3952,0.1574,0.9953
2025-07-16 16:27:46.198343,174,887.2,-0.3979,0.1611,0.9794
2025-07-16 16:27:46.328184,176,1149.4,-0.3957,0.1633,0.9758
2025-07-16 16:27:46.428184,176,1149.4,-0.4035,0.1623,0.9846
2025-07-16 16:27:46.597123,180,1149.4,-0.3945,0.1628,0.9655
2025-07-16 16:27:46.697123,180,1411.5,-0.3874,0.166,0.9697
2025-07-16 16:27:46.797123,180,1411.5,-0.3959,0.1726,0.9765
2025-07-16 16:27:46.898703,183,1149.4,-0.4028,0.1701,0.9887
2025-07-16 16:27:46.998703,183,887.2,-0.3933,0.1708,0.9865
2025-07-16 16:27:47.098703,183,756.2,-0.3925,0.1699,0.9819
2025-07-16 16:27:47.267862,185,1018.3,-0.4001,0.1711,0.9956
2025-07-16 16:27:47.367862,185,1280.5,-0.3918,0.1674,0.9821
2025-07-16 16:27:47.485045,188,887.2,-0.393,0.1713,0.9704
2025-07-16 16:27:47.585045,188,887.2,-0.3925,0.1682,0.9768
2025-07-16 16:27:47.685045,188,1018.3,-0.4052,0.1743,0.9719
2025-07-16 16:27:47.753509,191,1149.4,-0.3996,0.1745,0.9851
2025-07-16 16:27:47.853509,191,1280.5,-0.3957,0.1635,0.9736
2025-07-16 16:27:47.953509,191,887.2,-0.3908,0.1665,0.9768
2025-07-16 16:27:48.628044,198,1542.6,-0.3981,0.1752,0.9831
2025-07-16 16:27:48.728044,198,1411.5,-0.3698,0.1682,0.9721
2025-07-16 16:27:48.828044,198,1018.3,-0.3906,0.1821,0.9968
2025-07-16 16:27:49.272400,206,625.1,-0.3835,0.1857,0.9851
2025-07-16 16:27:49.372400,206,887.2,-0.3881,0.1831,0.978
2025-07-16 16:27:49.472400,206,1411.5,-0.3884,0.1779,0.9855
2025-07-16 16:27:49.824041,210,756.2,-0.394,0.1726,0.965
2025-07-16 16:27:49.924041,210,756.2,-0.3891,0.1669,0.9794
2025-07-16 16:27:50.024041,210,1018.3,-0.3918,0.1687,0.9763
2025-07-16 16:27:49.927196,212,1149.4,-0.3884,0.1625,0.9897
2025-07-16 16:27:50.027196,212,1018.3,-0.3884,0.1708,0.9914
2025-07-16 16:27:50.131129,213,887.2,-0.3942,0.1672,0.9809
2025-07-16 16:27:50.214366,216,1018.3,-0.3964,0.1694,0.9809
2025-07-16 16:27:50.314366,216,1149.4,-0.395,0.1652,0.9819
2025-07-16 16:27:50.414366,216,887.2,-0.3884,0.1652,0.9841
2025-07-16 16:27:50.529022,218,756.2,-0.3952,0.166,0.9785
2025-07-16 16:27:50.629022,218,1280.5,-0.3908,0.1623,0.9724
2025-07-16 16:27:50.755156,219,1018.3,-0.3847,0.1596,0.9736
2025-07-16 16:27:51.040572,224,887.2,-0.3918,0.1572,0.988
2025-07-16 16:27:51.140572,224,1018.3,-0.3974,0.156,0.986
2025-07-16 16:27:51.240572,224,756.2,-0.3803,0.1564,0.9738
2025-07-16 16:27:51.458030,228,1149.4,-0.3825,0.1545,0.977
2025-07-16 16:27:51.558030,228,1018.3,-0.3886,0.1572,0.9858
2025-07-16 16:27:51.658030,228,756.2,-0.382,0.1555,0.9675
2025-07-16 16:27:51.755956,230,1018.3,-0.3815,0.1584,0.9653
2025-07-16 16:27:51.855956,230,1411.5,-0.3945,0.1586,0.976
2025-07-16 16:27:52.275534,236,1018.3,-0.3889,0.1579,0.9838
2025-07-16 16:27:52.375534,236,887.2,-0.3901,0.1569,0.9763
2025-07-16 16:27:52.475534,236,756.2,-0.3872,0.153,0.9716
2025-07-16 16:27:52.585757,239,887.2,-0.3964,0.1586,1.0048
2025-07-16 16:27:52.685757,239,1018.3,-0.394,0.1562,0.9919
2025-07-16 16:27:52.785757,239,1018.3,-0.3842,0.1599,0.9868
2025-07-16 16:27:53.425368,246,494.0,-0.4082,0.1579,0.9851
2025-07-16 16:27:53.525368,246,1018.3,-0.3908,0.1604,0.988
2025-07-16 16:27:53.625368,246,1542.6,-0.3952,0.1569,0.9865
2025-07-16 16:27:53.526102,248,1280.5,-0.3854,0.1528,0.9992
2025-07-16 16:27:53.626102,248,1149.4,-0.3823,0.1533,0.9753
2025-07-16 16:27:54.401125,1,1280.5,-0.3815,0.1372,0.998
2025-07-16 16:27:54.501125,1,1018.3,-0.3798,0.1391,0.9953
2025-07-16 16:27:54.601125,1,1280.5,-0.3781,0.145,0.9853
2025-07-16 16:27:55.331898,11,1542.6,-0.375,0.1374,0.9816
2025-07-16 16:27:55.431898,11,1411.5,-0.3718,0.142,0.9895
2025-07-16 16:27:55.531898,11,1149.4,-0.3791,0.1403,0.9919
2025-07-16 16:27:55.879643,16,887.2,-0.3742,0.1386,0.9912
2025-07-16 16:27:55.979643,16,1280.5,-0.3649,0.135,0.9943
2025-07-16 16:27:56.079643,16,1149.4,-0.3754,0.1384,0.9926
2025-07-16 16:27:56.198258,20,1280.5,-0.3803,0.1401,0.9816
2025-07-16 16:27:56.298258,20,1411.5,-0.3764,0.1369,0.9953
2025-07-16 16:27:56.398258,20,1280.5,-0.3693,0.1384,0.9929
2025-07-16 16:27:56.574667,22,1018.3,-0.3691,0.1433,0.9934
2025-07-16 16:27:56.674667,22,887.2,-0.3688,0.132,0.9782
2025-07-16 16:27:56.759409,23,1149.4,-0.3652,0.1406,0.986
2025-07-16 16:27:56.881358,25,1149.4,-0.3664,0.1369,0.9841
2025-07-16 16:27:56.981358,25,887.2,-0.372,0.1381,0.9848
2025-07-16 16:27:57.382224,31,1018.3,-0.3654,0.1357,0.9868
2025-07-16 16:27:57.482224,31,1149.4,-0.3703,0.1359,0.9987
2025-07-16 16:27:57.582224,31,887.2,-0.3706,0.1386,0.9941
2025-07-16 16:27:58.229202,40,1149.4,-0.352,0.1406,0.9807
2025-07-16 16:27:58.329202,40,1149.4,-0.3659,0.1357,0.9987
2025-07-16 16:27:58.429202,40,1280.5,-0.3593,0.1391,0.999
2025-07-16 16:27:58.528174,43,1673.7,-0.3605,0.1308,0.9987
2025-07-16 16:27:58.628174,43,1280.5,-0.3662,0.1323,0.9863
2025-07-16 16:27:58.728174,43,1018.3,-0.364,0.1357,1.0024
2025-07-16 16:27:59.497295,53,1411.5,-0.363,0.1328,1.0056
2025-07-16 16:27:59.597295,53,1411.5,-0.3662,0.1323,1.0053
2025-07-16 16:27:59.697295,53,1542.6,-0.3598,0.1335,1.0017
2025-07-16 16:27:59.873461,55,1411.5,-0.3601,0.1308,0.9951
2025-07-16 16:27:59.973461,55,1149.4,-0.3583,0.1342,0.9995
2025-07-16 16:28:00.126363,59,1411.5,-0.3615,0.1323,0.9665
2025-07-16 16:28:00.226363,59,1673.7,-0.3593,0.1384,0.9921
2025-07-16 16:28:00.326363,59,1280.5,-0.3603,0.1271,1.019
2025-07-16 16:28:00.412172,62,1149.4,-0.3664,0.1347,1.0053
2025-07-16 16:28:00.512172,62,1542.6,-0.3605,0.1301,0.9938
2025-07-16 16:28:00.612172,62,1673.7,-0.3596,0.1328,1.0019
2025-07-16 16:28:00.797793,64,1673.7,-0.3576,0.1345,0.9865
2025-07-16 16:28:00.897793,64,1280.5,-0.364,0.134,1.0065
2025-07-16 16:28:00.898628,65,1280.5,-0.3608,0.1369,0.9956
2025-07-16 16:28:01.554596,73,2066.9,-0.3586,0.1298,0.9997
2025-07-16 16:28:01.654596,73,2198.0,-0.3566,0.1311,1.0078
2025-07-16 16:28:01.754596,73,1673.7,-0.3601,0.133,1.0009
2025-07-16 16:28:01.827470,76,1411.5,-0.3559,0.1298,1.0
2025-07-16 16:28:01.927470,76,1935.8,-0.3557,0.1298,0.9982
2025-07-16 16:28:02.027470,76,1935.8,-0.3588,0.132,1.0039
2025-07-16 16:28:02.187069,79,1542.6,-0.3549,0.1318,0.9982
2025-07-16 16:28:02.287069,79,1411.5,-0.3598,0.1315,1.0009
2025-07-16 16:28:02.387069,79,1804.8,-0.3554,0.1325,1.0036
2025-07-16 16:28:02.767615,85,1935.8,-0.3598,0.1328,0.9997
2025-07-16 16:28:02.867615,85,1935.8,-0.3605,0.1342,0.9907
2025-07-16 16:28:02.967615,85,1673.7,-0.3608,0.1311,0.9902
2025-07-16 16:28:03.073130,88,1280.5,-0.3564,0.1308,0.9956
2025-07-16 16:28:03.173130,88,1280.5,-0.3613,0.1296,0.9975
2025-07-16 16:28:03.273130,88,1411.5,-0.3503,0.1276,1.0017
2025-07-16 16:28:03.724472,95,1280.5,-0.3706,0.1416,1.0263
2025-07-16 16:28:03.824472,95,1411.5,-0.4121,0.132,1.0039
2025-07-16 16:28:03.924472,95,1673.7,-0.402,0.1386,0.9602
2025-07-16 16:28:04.026970,97,1411.5,-0.3671,0.0996,1.0395
2025-07-16 16:28:04.126970,97,1542.6,-0.3298,0.0566,0.9916
2025-07-16 16:28:04.279648,100,1673.7,-0.3518,0.0712,0.9982
2025-07-16 16:28:04.379648,100,1542.6,-0.3488,0.0686,1.01
2025-07-16 16:28:04.479648,100,1411.5,-0.3784,0.0161,0.9543
2025-07-16 16:28:04.897165,107,1542.6,-0.3366,0.0646,1.0141
2025-07-16 16:28:04.997165,107,1411.5,-0.3425,0.0683,1.0146
2025-07-16 16:28:05.097165,107,1542.6,-0.3369,0.0686,1.0168
2025-07-16 16:28:05.455704,112,1673.7,-0.3334,0.0676,1.0095
2025-07-16 16:28:05.555704,112,1804.8,-0.34,0.0668,1.01
2025-07-16 16:28:05.655704,112,2066.9,-0.3386,0.0671,1.0148
2025-07-16 16:28:05.798420,116,1935.8,-0.3383,0.0671,1.0168
2025-07-16 16:28:05.898420,116,1804.8,-0.3339,0.0676,1.0148
2025-07-16 16:28:05.998420,116,1804.8,-0.3374,0.0681,1.0153
2025-07-16 16:28:06.127740,118,1673.7,-0.3334,0.069,1.0168
2025-07-16 16:28:06.227740,118,1673.7,-0.3376,0.0673,1.0263
2025-07-16 16:28:06.327930,121,1804.8,-0.3369,0.0698,1.0158
2025-07-16 16:28:06.427930,121,1935.8,-0.3356,0.0681,1.0119
2025-07-16 16:28:06.527930,121,1804.8,-0.3381,0.0693,1.0224
2025-07-16 16:28:06.595807,122,2066.9,-0.3352,0.0678,1.0124
2025-07-16 16:28:06.784440,123,1804.8,-0.3349,0.0649,1.0146
2025-07-16 16:28:06.851498,124,1542.6,-0.3388,0.0695,1.01
2025-07-16 16:28:06.970763,126,1542.6,-0.3344,0.0659,1.0156
2025-07-16 16:28:07.070763,126,1280.5,-0.3349,0.0634,1.017
2025-07-16 16:28:07.170821,127,1280.5,-0.3381,0.0705,1.0153
2025-07-16 16:28:07.278367,129,1280.5,-0.3364,0.0695,1.0158
2025-07-16 16:28:07.378367,129,1411.5,-0.3369,0.069,1.0117
2025-07-16 16:28:07.410733,131,1542.6,-0.3361,0.0693,1.0112
2025-07-16 16:28:07.510733,131,1411.5,-0.3344,0.0615,1.0217
2025-07-16 16:28:07.761556,135,2198.0,-0.3361,0.0646,1.0185
2025-07-16 16:28:07.861556,135,2198.0,-0.3366,0.0661,1.0122
2025-07-16 16:28:07.961556,135,2066.9,-0.3374,0.0673,1.0129
2025-07-16 16:28:08.108805,136,1935.8,-0.3349,0.0688,1.0161
2025-07-16 16:28:08.186879,137,2066.9,-0.3334,0.0678,1.0136
2025-07-16 16:28:08.588684,143,1935.8,-0.3378,0.0644,1.0153
2025-07-16 16:28:08.688684,143,2198.0,-0.3349,0.0683,1.0117
2025-07-16 16:28:08.788684,143,1673.7,-0.3349,0.0661,1.019
2025-07-16 16:28:08.831892,144,1804.8,-0.3339,0.0637,1.0136
2025-07-16 16:28:08.911181,146,2460.1,-0.3364,0.0666,1.0136
2025-07-16 16:28:09.011181,146,2329.0,-0.3339,0.0656,1.0117
2025-07-16 16:28:09.448003,152,2066.9,-0.3315,0.0686,1.0197
2025-07-16 16:28:09.548003,152,2066.9,-0.3334,0.0688,1.0148
2025-07-16 16:28:09.648003,152,2066.9,-0.3371,0.0637,1.0126
2025-07-16 16:28:09.758884,154,1804.8,-0.3369,0.0676,1.0148
2025-07-16 16:28:09.858884,154,2198.0,-0.3342,0.0671,1.0095
2025-07-16 16:28:10.059101,158,1804.8,-0.3369,0.0659,1.0161
2025-07-16 16:28:10.159101,158,1935.8,-0.3305,0.0688,1.0097
2025-07-16 16:28:10.259101,158,1673.7,-0.3374,0.0708,1.0202
2025-07-16 16:28:10.341347,159,1542.6,-0.3337,0.0661,1.0146
2025-07-16 16:28:10.396227,160,1935.8,-0.3378,0.0683,1.019
2025-07-16 16:28:10.548941,161,2066.9,-0.3359,0.0637,1.0134
2025-07-16 16:28:10.598291,163,2066.9,-0.3298,0.0703,1.0156
2025-07-16 16:28:10.698291,163,2329.0,-0.332,0.0693,1.0139
2025-07-16 16:28:10.824173,166,2066.9,-0.3315,0.0666,1.0129
2025-07-16 16:28:10.924173,166,1673.7,-0.3337,0.0642,1.0141
2025-07-16 16:28:11.024173,166,1673.7,-0.3369,0.0673,1.0124
2025-07-16 16:28:11.119044,167,1280.5,-0.3366,0.0698,1.0148
2025-07-16 16:28:11.697226,175,1411.5,-0.3352,0.0654,1.02
2025-07-16 16:28:11.797226,175,1280.5,-0.3347,0.0686,1.0166
2025-07-16 16:28:11.897226,175,1149.4,-0.3374,0.0651,1.018
2025-07-16 16:28:12.026407,176,1280.5,-0.3369,0.072,1.0119
2025-07-16 16:28:12.125789,177,1542.6,-0.3344,0.0637,1.0144
2025-07-16 16:28:12.207184,178,1149.4,-0.3354,0.0659,1.0092
2025-07-16 16:28:12.386171,179,1018.3,-0.3347,0.0654,1.0229
2025-07-16 16:28:12.463954,181,1280.5,-0.3376,0.069,1.0087
2025-07-16 16:28:12.563954,181,1411.5,-0.3366,0.0644,1.0185
2025-07-16 16:28:12.597586,182,1673.7,-0.332,0.0686,1.0168
2025-07-16 16:28:12.697424,184,1673.7,-0.3308,0.0661,1.0246
2025-07-16 16:28:12.797424,184,1542.6,-0.3366,0.0686,1.0185
2025-07-16 16:28:12.956718,187,1411.5,-0.3359,0.0705,1.0163
2025-07-16 16:28:13.056718,187,1411.5,-0.3312,0.0666,1.0075
2025-07-16 16:28:13.156718,187,1542.6,-0.3347,0.0683,1.017
2025-07-16 16:28:13.279700,188,1542.6,-0.3369,0.0637,1.0229
2025-07-16 16:28:13.398565,189,1542.6,-0.3374,0.0654,1.0197
2025-07-16 16:28:13.483191,190,1280.5,-0.3359,0.0688,1.0183
2025-07-16 16:28:13.506096,191,1411.5,-0.3403,0.0654,1.0209
2025-07-16 16:28:13.844331,196,1411.5,-0.3349,0.0686,1.0187
2025-07-16 16:28:13.944331,196,1411.5,-0.3327,0.0671,1.0246
2025-07-16 16:28:14.044331,196,1280.5,-0.3344,0.0642,1.0156
2025-07-16 16:28:14.121561,199,1411.5,-0.3325,0.0681,1.0217
2025-07-16 16:28:14.221561,199,1673.7,-0.3317,0.0678,1.0102
2025-07-16 16:28:14.321561,199,1280.5,-0.3352,0.0668,1.0087
2025-07-16 16:28:14.424828,200,1280.5,-0.3322,0.0625,1.0192
2025-07-16 16:28:14.524932,202,1673.7,-0.3354,0.0644,1.0195
2025-07-16 16:28:14.624932,202,1673.7,-0.3361,0.0678,1.0124
2025-07-16 16:28:14.729144,203,1542.6,-0.3349,0.0666,1.017
2025-07-16 16:28:14.829571,204,1280.5,-0.3291,0.0642,1.0087
2025-07-16 16:28:15.022490,208,2198.0,-0.3349,0.0734,1.0141
2025-07-16 16:28:15.122490,208,1935.8,-0.3352,0.0681,1.02
2025-07-16 16:28:15.222490,208,1804.8,-0.3278,0.0708,1.0156
2025-07-16 16:28:15.596488,214,1804.8,-0.3391,0.07,1.0183
2025-07-16 16:28:15.696488,214,1673.7,-0.3347,0.0629,1.0124
2025-07-16 16:28:15.796488,214,1411.5,-0.3376,0.0681,1.0207
2025-07-16 16:28:15.909018,216,1280.5,-0.3349,0.0681,1.0141
2025-07-16 16:28:16.009018,216,1542.6,-0.3315,0.069,1.0173
2025-07-16 16:28:16.160736,219,1673.7,-0.3327,0.0678,1.0246
2025-07-16 16:28:16.260736,219,1542.6,-0.3315,0.0681,1.0087
2025-07-16 16:28:16.360736,219,1411.5,-0.3349,0.0703,1.0236
2025-07-16 16:28:16.395419,221,1149.4,-0.3349,0.0646,1.0163
2025-07-16 16:28:16.495419,221,1280.5,-0.3322,0.069,1.0195
2025-07-16 16:28:16.595944,223,1542.6,-0.3298,0.0649,1.0117
2025-07-16 16:28:16.695944,223,1411.5,-0.3349,0.0644,1.0217
2025-07-16 16:28:16.862837,225,1411.5,-0.3332,0.0698,1.0136
2025-07-16 16:28:16.962837,225,1542.6,-0.3354,0.0688,1.0166
2025-07-16 16:28:17.055212,226,1935.8,-0.3315,0.0651,1.0214
2025-07-16 16:28:17.459053,232,1149.4,-0.3356,0.07,1.0097
2025-07-16 16:28:17.559053,232,1411.5,-0.3337,0.0698,1.0148
2025-07-16 16:28:17.659053,232,1542.6,-0.333,0.0671,1.0109
2025-07-16 16:28:17.827963,236,1018.3,-0.3332,0.0676,1.0202
2025-07-16 16:28:17.927963,236,1280.5,-0.3381,0.0734,1.0156
2025-07-16 16:28:18.027963,236,1411.5,-0.3349,0.0695,1.0148
2025-07-16 16:28:18.097412,238,1280.5,-0.3322,0.0683,1.02
2025-07-16 16:28:18.197412,238,1411.5,-0.3339,0.0642,1.0122
2025-07-16 16:28:18.360878,241,1280.5,-0.3364,0.0793,1.0273
2025-07-16 16:28:18.460878,241,887.2,-0.321,0.0805,1.0275
2025-07-16 16:28:18.560878,241,756.2,-0.322,0.0834,1.019
2025-07-16 16:28:18.598429,242,1149.4,-0.3215,0.0847,1.02
2025-07-16 16:28:18.759088,244,1411.5,-0.3195,0.0832,1.0195
2025-07-16 16:28:18.859088,244,1542.6,-0.3212,0.0864,1.018
2025-07-16 16:28:19.024247,248,1280.5,-0.3215,0.0832,1.0224
2025-07-16 16:28:19.124247,248,1280.5,-0.321,0.0876,1.0241
2025-07-16 16:28:19.224247,248,1149.4,-0.3232,0.0852,1.0231
2025-07-16 16:28:19.355491,249,1018.3,-0.3188,0.0874,1.0222
2025-07-16 16:28:19.412042,250,1280.5,-0.3195,0.0893,1.0219
2025-07-16 16:28:19.555691,253,1149.4,-0.3178,0.0834,1.0197
2025-07-16 16:28:19.655691,253,756.2,-0.322,0.0859,1.0185
2025-07-16 16:28:19.755691,253,1018.3,-0.3173,0.0856,1.0244
2025-07-16 16:28:19.889203,254,1149.4,-0.3137,0.0871,1.0212
2025-07-16 16:28:19.958244,0,1411.5,-0.3164,0.0893,1.0217
2025-07-16 16:28:20.058244,0,1673.7,-0.3168,0.0871,1.0261
2025-07-16 16:28:20.125408,1,1280.5,-0.3188,0.0898,1.0163
2025-07-16 16:28:20.225263,2,887.2,-0.3154,0.0881,1.0256
2025-07-16 16:28:20.379685,3,887.2,-0.3151,0.0869,1.0224
2025-07-16 16:28:20.526940,7,1018.3,-0.3144,0.0864,1.019
2025-07-16 16:28:20.626940,7,756.2,-0.3151,0.09,1.0266
2025-07-16 16:28:20.726940,7,887.2,-0.3164,0.0908,1.0251
2025-07-16 16:28:20.825973,9,887.2,-0.3129,0.0866,1.0224
2025-07-16 16:28:20.925973,9,1149.4,-0.3195,0.0854,1.0202
2025-07-16 16:28:21.347764,15,1018.3,-0.3149,0.0893,1.0207
2025-07-16 16:28:21.447764,15,887.2,-0.3132,0.0866,1.0273
2025-07-16 16:28:21.547764,15,1018.3,-0.3134,0.0839,1.019
2025-07-16 16:28:21.631738,16,1280.5,-0.3181,0.0861,1.0222
2025-07-16 16:28:21.781522,18,887.2,-0.3154,0.0864,1.0129
2025-07-16 16:28:21.881522,18,756.2,-0.3125,0.091,1.0148
2025-07-16 16:28:21.926645,21,1018.3,-0.3166,0.0886,1.0214
2025-07-16 16:28:22.026645,21,1149.4,-0.3132,0.0913,1.0214
2025-07-16 16:28:22.126645,21,1149.4,-0.3112,0.0891,1.0205
2025-07-16 16:28:22.895555,31,887.2,-0.3146,0.091,1.0161
2025-07-16 16:28:22.995555,31,887.2,-0.3151,0.0913,1.0236
2025-07-16 16:28:23.095555,31,1149.4,-0.3137,0.0905,1.0253
2025-07-16 16:28:23.458318,36,1149.4,-0.3176,0.0925,1.0222
2025-07-16 16:28:23.558318,36,1542.6,-0.3142,0.091,1.0231
2025-07-16 16:28:23.658318,36,1542.6,-0.3105,0.0847,1.031
2025-07-16 16:28:24.097100,42,1149.4,-0.3134,0.0922,1.0227
2025-07-16 16:28:24.197100,42,1149.4,-0.3142,0.0866,1.0263
2025-07-16 16:28:24.297100,42,1018.3,-0.3105,0.0922,1.0229
2025-07-16 16:28:24.297955,43,1018.3,-0.3132,0.0908,1.0217
2025-07-16 16:28:24.672929,48,1018.3,-0.3146,0.0913,1.0148
2025-07-16 16:28:24.772929,48,1280.5,-0.3137,0.0861,1.0217
2025-07-16 16:28:24.872929,48,1018.3,-0.3156,0.0891,1.0124
2025-07-16 16:28:24.931093,51,887.2,-0.3198,0.0903,1.02
2025-07-16 16:28:25.031093,51,1149.4,-0.3144,0.0861,1.0173
2025-07-16 16:28:25.131093,51,1542.6,-0.3144,0.0908,1.017
2025-07-16 16:28:25.579687,57,1280.5,-0.3117,0.09,1.0227
2025-07-16 16:28:25.679687,57,1411.5,-0.3137,0.0932,1.0246
2025-07-16 16:28:25.779687,57,1804.8,-0.3154,0.0922,1.0187
2025-07-16 16:28:26.750570,69,1542.6,-0.3095,0.0903,1.0175
2025-07-16 16:28:26.850570,69,1280.5,-0.3168,0.0905,1.0224
2025-07-16 16:28:26.950570,69,1018.3,-0.312,0.0903,1.02
2025-07-16 16:28:27.108413,73,1542.6,-0.3098,0.09,1.0249
2025-07-16 16:28:27.208413,73,1280.5,-0.3129,0.0856,1.0231
2025-07-16 16:28:27.308413,73,887.2,-0.3085,0.0937,1.018
2025-07-16 16:28:27.526309,75,1018.3,-0.311,0.091,1.0131
2025-07-16 16:28:27.626309,75,756.2,-0.3112,0.0905,1.0192
2025-07-16 16:28:27.689963,78,1018.3,-0.3142,0.0886,1.0205
2025-07-16 16:28:27.789963,78,1280.5,-0.3181,0.0886,1.0209
2025-07-16 16:28:27.889963,78,1280.5,-0.311,0.0895,1.019
2025-07-16 16:28:27.928012,81,1411.5,-0.3115,0.0913,1.0163
2025-07-16 16:28:28.028012,81,1411.5,-0.3137,0.0895,1.0161
2025-07-16 16:28:28.128012,81,1280.5,-0.3144,0.091,1.0231
2025-07-16 16:28:28.224169,82,1149.4,-0.3146,0.0891,1.0187
2025-07-16 16:28:28.326945,84,1673.7,-0.3098,0.09,1.0166
2025-07-16 16:28:28.426945,84,1673.7,-0.3146,0.0917,1.0266
2025-07-16 16:28:28.898874,91,1411.5,-0.311,0.0944,1.0202
2025-07-16 16:28:28.998874,91,1542.6,-0.3083,0.092,1.0205
2025-07-16 16:28:29.098874,91,1411.5,-0.3093,0.0942,1.0212
2025-07-16 16:28:29.224097,93,1411.5,-0.3093,0.0869,1.0256
2025-07-16 16:28:29.324097,93,1280.5,-0.3122,0.0947,1.02
2025-07-16 16:28:30.087015,102,1149.4,-0.309,0.0895,1.0168
2025-07-16 16:28:30.187015,102,1411.5,-0.3085,0.0937,1.0205
2025-07-16 16:28:30.287015,102,1673.7,-0.3142,0.0944,1.0231
2025-07-16 16:28:30.327021,103,1542.6,-0.3137,0.0913,1.0195
2025-07-16 16:28:30.702636,108,1280.5,-0.3127,0.0878,1.0209
2025-07-16 16:28:30.802636,108,1018.3,-0.3127,0.0913,1.0212
2025-07-16 16:28:30.902636,108,1149.4,-0.3161,0.0905,1.0285
2025-07-16 16:28:31.002439,112,1673.7,-0.3125,0.0942,1.0251
2025-07-16 16:28:31.102439,112,1542.6,-0.3112,0.0905,1.02
2025-07-16 16:28:31.202439,112,1280.5,-0.3083,0.0925,1.0273
2025-07-16 16:28:31.535808,115,1280.5,-0.3093,0.0944,1.0227
2025-07-16 16:28:31.635808,115,1149.4,-0.3081,0.0898,1.017
2025-07-16 16:28:31.735808,115,1018.3,-0.3142,0.0939,1.0275
2025-07-16 16:28:31.661151,117,1149.4,-0.3117,0.0903,1.0207
2025-07-16 16:28:31.761151,117,1149.4,-0.31,0.093,1.0202
2025-07-16 16:28:32.425266,126,1018.3,-0.3103,0.093,1.0246
2025-07-16 16:28:32.525266,126,756.2,-0.3127,0.0905,1.0244
2025-07-16 16:28:32.625266,126,887.2,-0.3144,0.091,1.0144
2025-07-16 16:28:32.697239,127,1018.3,-0.3088,0.0869,1.0253
2025-07-16 16:28:32.858263,129,1149.4,-0.3134,0.0891,1.0173
2025-07-16 16:28:32.958263,129,1411.5,-0.3115,0.0913,1.0205
2025-07-16 16:28:33.072705,132,1280.5,-0.3115,0.092,1.0178
2025-07-16 16:28:33.172705,132,1280.5,-0.3127,0.0954,1.0256
2025-07-16 16:28:33.272705,132,1280.5,-0.3098,0.0908,1.0151
2025-07-16 16:28:33.944928,141,1018.3,-0.3112,0.092,1.0175
2025-07-16 16:28:34.044928,141,1018.3,-0.3156,0.0939,1.0202
2025-07-16 16:28:34.144928,141,1149.4,-0.3088,0.0937,1.0249
2025-07-16 16:28:34.524260,147,1280.5,-0.312,0.0917,1.0209
2025-07-16 16:28:34.624260,147,887.2,-0.3142,0.0937,1.0209
2025-07-16 16:28:34.724260,147,887.2,-0.3144,0.09,1.0197
2025-07-16 16:28:35.006829,152,1411.5,-0.3107,0.0932,1.0136
2025-07-16 16:28:35.106829,152,1280.5,-0.3139,0.09,1.0249
2025-07-16 16:28:35.206829,152,756.2,-0.3103,0.0932,1.0158
2025-07-16 16:28:35.326345,153,1018.3,-0.3107,0.0898,1.0192
2025-07-16 16:28:35.725604,159,1411.5,-0.311,0.0913,1.0195
2025-07-16 16:28:35.825604,159,1149.4,-0.3093,0.0905,1.0207
2025-07-16 16:28:35.925604,159,625.1,-0.3061,0.0922,1.0268
2025-07-16 16:28:36.098888,163,1280.5,-0.3088,0.0871,1.0192
2025-07-16 16:28:36.198888,163,1280.5,-0.3144,0.0891,1.0173
2025-07-16 16:28:36.298888,163,1149.4,-0.3095,0.0966,1.0197
2025-07-16 16:28:36.998586,172,1149.4,-0.3115,0.0949,1.0256
2025-07-16 16:28:37.098586,172,1149.4,-0.3083,0.092,1.0195
2025-07-16 16:28:37.198586,172,1280.5,-0.3122,0.0932,1.027
2025-07-16 16:28:37.363644,174,1149.4,-0.3142,0.0913,1.0161
2025-07-16 16:28:37.463644,174,887.2,-0.309,0.0888,1.0295
2025-07-16 16:28:37.496013,175,1018.3,-0.3098,0.0905,1.0207
2025-07-16 16:28:37.630425,178,1280.5,-0.3088,0.0961,1.0229
2025-07-16 16:28:37.730425,178,1280.5,-0.3117,0.0957,1.0207
2025-07-16 16:28:37.830425,178,1280.5,-0.3125,0.0969,1.0178
2025-07-16 16:28:37.998809,180,1018.3,-0.311,0.0886,1.018
2025-07-16 16:28:38.098809,180,887.2,-0.3144,0.0937,1.0241
2025-07-16 16:28:38.133554,181,1018.3,-0.3112,0.0935,1.0231
2025-07-16 16:28:38.308930,183,1018.3,-0.3059,0.0939,1.027
2025-07-16 16:28:38.408930,183,1018.3,-0.3105,0.0964,1.0219
2025-07-16 16:28:38.724491,189,756.2,-0.3159,0.0937,1.0278
2025-07-16 16:28:38.824491,189,1018.3,-0.3144,0.0988,1.0288
2025-07-16 16:28:38.924491,189,1280.5,-0.3125,0.0908,1.0178
2025-07-16 16:28:39.025887,190,1149.4,-0.3093,0.09,1.0253
2025-07-16 16:28:39.415998,196,625.1,-0.3115,0.0917,1.0185
2025-07-16 16:28:39.515998,196,756.2,-0.3093,0.0917,1.0339
2025-07-16 16:28:39.615998,196,1280.5,-0.309,0.0947,1.0209
2025-07-16 16:28:40.532043,205,1280.5,-0.3105,0.0959,1.0151
2025-07-16 16:28:40.632043,205,887.2,-0.3105,0.0927,1.018
2025-07-16 16:28:40.732043,205,1018.3,-0.3132,0.0939,1.0236
2025-07-16 16:28:40.661807,207,1018.3,-0.3105,0.0925,1.0236
2025-07-16 16:28:40.761807,207,1018.3,-0.309,0.0922,1.027
2025-07-16 16:28:40.798525,208,1149.4,-0.312,0.0895,1.0231
2025-07-16 16:28:41.130202,213,1542.6,-0.3095,0.0913,1.0249
2025-07-16 16:28:41.230202,213,1280.5,-0.3093,0.09,1.0266
2025-07-16 16:28:41.330202,213,1149.4,-0.3117,0.0947,1.0205
2025-07-16 16:28:42.059006,222,1149.4,-0.3103,0.0927,1.0224
2025-07-16 16:28:42.159006,222,1542.6,-0.311,0.092,1.0241
2025-07-16 16:28:42.259006,222,1411.5,-0.3103,0.0925,1.0231
2025-07-16 16:28:42.326591,225,1280.5,-0.3122,0.0925,1.0202
2025-07-16 16:28:42.426591,225,1411.5,-0.3132,0.0957,1.0266
2025-07-16 16:28:42.526591,225,1411.5,-0.3122,0.0922,1.0302
2025-07-16 16:28:42.725987,229,1280.5,-0.3059,0.0964,1.0234
2025-07-16 16:28:42.825987,229,887.2,-0.3083,0.093,1.0202
2025-07-16 16:28:42.925987,229,1149.4,-0.3095,0.0957,1.0244
2025-07-16 16:28:43.023233,231,1280.5,-0.3093,0.0947,1.0234
2025-07-16 16:28:43.123233,231,1149.4,-0.3095,0.0937,1.0266
2025-07-16 16:28:43.855049,240,1673.7,-0.3095,0.091,1.0207
2025-07-16 16:28:43.955049,240,1411.5,-0.3056,0.092,1.0231
2025-07-16 16:28:44.055049,240,1149.4,-0.3122,0.0937,1.03
2025-07-16 16:28:44.127988,243,1542.6,-0.312,0.0947,1.0268
2025-07-16 16:28:44.227988,243,1673.7,-0.3093,0.0952,1.0251
2025-07-16 16:28:44.327988,243,1411.5,-0.3103,0.0927,1.0166
2025-07-16 16:28:44.398309,244,1411.5,-0.3137,0.092,1.0224
2025-07-16 16:28:45.055131,252,1935.8,-0.3103,0.0937,1.0227
2025-07-16 16:28:45.155131,252,2329.0,-0.3112,0.092,1.0322
2025-07-16 16:28:45.255131,252,1935.8,-0.3127,0.0935,1.0241
2025-07-16 16:28:45.340430,255,1280.5,-0.3085,0.0947,1.0178
2025-07-16 16:28:45.440430,255,887.2,-0.3134,0.0979,1.0307
2025-07-16 16:28:45.540430,255,1280.5,-0.3076,0.0944,1.0249
2025-07-16 16:28:45.628431,0,1935.8,-0.311,0.0971,1.0266
2025-07-16 16:28:45.726744,3,1935.8,-0.3142,0.0935,1.0192
2025-07-16 16:28:45.826744,3,1542.6,-0.311,0.0957,1.0246
2025-07-16 16:28:45.926744,3,1411.5,-0.3107,0.0942,1.027
2025-07-16 16:28:46.314010,9,1935.8,-0.3095,0.0927,1.0207
2025-07-16 16:28:46.414010,9,1673.7,-0.3083,0.0932,1.0256
2025-07-16 16:28:46.514010,9,1542.6,-0.3078,0.0966,1.0258
2025-07-16 16:28:46.640632,11,1804.8,-0.3098,0.0917,1.0195
2025-07-16 16:28:46.740632,11,1804.8,-0.3068,0.093,1.0209
2025-07-16 16:28:46.823827,14,1804.8,-0.311,0.0942,1.0229
2025-07-16 16:28:46.923827,14,1673.7,-0.3129,0.0991,1.0195
2025-07-16 16:28:47.023827,14,1673.7,-0.3103,0.0925,1.0219
