timestamp,packet_id,pressure,accel_x,accel_y,accel_z
2025-07-17 14:08:50.535650,214,-2127.9,-0.111,0.195,1.0527
2025-07-17 14:08:50.635650,214,-1865.8,-0.1198,0.1945,1.0546
2025-07-17 14:08:50.864666,217,-1865.8,-0.104,0.1799,0.9638
2025-07-17 14:08:50.964666,217,-1603.6,-0.0324,0.142,1.0683
2025-07-17 14:08:51.219741,220,-1603.6,-0.0288,0.0449,1.1035
2025-07-17 14:08:51.319741,220,-1472.6,-0.0031,0.0261,1.0703
2025-07-17 14:08:51.498623,223,-1472.6,-0.1223,0.0246,1.1452
2025-07-17 14:08:51.598623,223,-1341.5,-0.0341,0.0747,1.0405
2025-07-17 14:08:52.360506,232,-1734.7,-0.2675,0.6621,0.7377
2025-07-17 14:08:52.460506,232,-1865.8,-0.2214,0.6464,0.8095
2025-07-17 14:08:52.965205,238,-2127.9,-0.1826,0.7241,0.7919
2025-07-17 14:08:53.065205,238,-2259.0,-0.1145,0.7314,0.6826
2025-07-17 14:08:53.266524,241,-2521.1,0.1333,0.6225,0.8598
2025-07-17 14:08:53.366524,241,-1996.8,0.0141,0.6164,0.748
2025-07-17 14:08:53.571436,244,-1996.8,0.0922,0.5463,0.8837
2025-07-17 14:08:53.671436,244,-2127.9,0.1018,0.4841,1.122
2025-07-17 14:08:54.501117,253,-2127.9,-0.0153,0.571,0.9104
2025-07-17 14:08:54.601117,253,-2127.9,0.0234,0.5678,0.9143
2025-07-17 14:08:55.156549,4,-1865.8,0.0505,0.5036,0.9628
2025-07-17 14:08:55.256549,4,-2259.0,0.0283,0.5087,0.9514
2025-07-17 14:08:55.363432,6,-2259.0,0.0444,0.5102,0.9382
2025-07-17 14:08:55.463432,6,-2390.1,0.0336,0.5107,0.9406
2025-07-17 14:08:56.563642,18,-2390.1,0.0412,0.5122,0.9409
2025-07-17 14:08:56.663642,18,-2390.1,0.04,0.5109,0.9465
2025-07-17 14:08:57.223557,24,-2127.9,0.0458,0.5063,0.966
2025-07-17 14:08:57.323557,24,-1996.8,0.0385,0.5,0.9521
2025-07-17 14:08:57.336252,25,-2127.9,0.0402,0.5107,0.9531
2025-07-17 14:08:57.463976,27,-2259.0,0.0432,0.5056,0.967
2025-07-17 14:08:57.563976,27,-2259.0,0.0361,0.5036,0.957
2025-07-17 14:08:57.666868,28,-2390.1,0.0444,0.5026,0.9443
2025-07-17 14:08:57.761612,30,-2390.1,0.041,0.5012,0.9594
2025-07-17 14:08:57.861612,30,-1734.7,0.049,0.5019,0.9589
2025-07-17 14:08:58.092801,33,-1865.8,0.0415,0.507,0.9436
2025-07-17 14:08:58.192801,33,-2390.1,0.0471,0.5029,0.956
2025-07-17 14:08:58.417730,36,-1734.7,0.0485,0.5048,0.9562
2025-07-17 14:08:58.517730,36,-1603.6,0.0466,0.5031,0.9482
2025-07-17 14:08:58.662250,39,-1996.8,0.0397,0.5083,0.9594
2025-07-17 14:08:58.762250,39,-1865.8,0.039,0.5104,0.9592
2025-07-17 14:08:59.262053,45,-1734.7,0.0434,0.5102,0.9577
2025-07-17 14:08:59.362053,45,-1734.7,0.0468,0.5102,0.9562
2025-07-17 14:09:00.470461,57,-1472.6,0.0417,0.509,0.9553
2025-07-17 14:09:00.570461,57,-1603.6,0.0385,0.5109,0.9377
2025-07-17 14:09:01.112275,63,-2127.9,0.0422,0.5053,0.9501
2025-07-17 14:09:01.212275,63,-2259.0,0.0449,0.5065,0.9409
2025-07-17 14:09:01.735983,70,-1996.8,0.0437,0.508,0.9445
2025-07-17 14:09:01.835983,70,-1865.8,0.0446,0.5136,0.9416
2025-07-17 14:09:01.997750,72,-1865.8,0.0424,0.5083,0.9558
2025-07-17 14:09:02.097750,72,-1865.8,0.0498,0.5131,0.9528
2025-07-17 14:09:02.481775,73,-1734.7,0.0437,0.5075,0.9509
2025-07-17 14:09:02.453681,77,-2127.9,0.0439,0.5058,0.9511
2025-07-17 14:09:02.553681,77,-2259.0,0.0473,0.5068,0.9521
2025-07-17 14:09:02.660816,79,-1865.8,0.0424,0.5107,0.9575
2025-07-17 14:09:02.760816,79,-1734.7,0.0432,0.5107,0.9528
2025-07-17 14:09:02.924902,80,-1734.7,0.0427,0.507,0.9558
2025-07-17 14:09:02.998685,82,-1996.8,0.0341,0.5085,0.9479
2025-07-17 14:09:03.098685,82,-2259.0,0.0461,0.5095,0.944
2025-07-17 14:09:03.483595,87,-2127.9,0.0476,0.5087,0.9562
2025-07-17 14:09:03.583595,87,-2127.9,0.0427,0.5058,0.9555
2025-07-17 14:09:04.336757,96,-1996.8,0.0461,0.5119,0.9504
2025-07-17 14:09:04.436757,96,-1996.8,0.048,0.5114,0.9514
2025-07-17 14:09:05.333099,106,-1865.8,0.0493,0.5117,0.9465
2025-07-17 14:09:05.433099,106,-1996.8,0.04,0.5114,0.9519
2025-07-17 14:09:05.568476,108,-1865.8,0.0375,0.5129,0.9577
2025-07-17 14:09:05.668476,108,-1996.8,0.0336,0.51,0.9504
2025-07-17 14:09:05.901392,111,-1734.7,0.0378,0.5078,0.9523
2025-07-17 14:09:06.001392,111,-1472.6,0.0339,0.5124,0.9545
2025-07-17 14:09:06.222946,114,-2127.9,0.0356,0.51,0.9489
2025-07-17 14:09:06.322946,114,-1734.7,0.0351,0.5148,0.9458
2025-07-17 14:09:07.349003,123,-1996.8,0.0339,0.5073,0.9533
2025-07-17 14:09:07.449003,123,-1603.6,0.0358,0.508,0.9436
2025-07-17 14:09:07.660977,127,-1996.8,0.038,0.5097,0.957
2025-07-17 14:09:07.760977,127,-2259.0,0.0407,0.5153,0.9492
2025-07-17 14:09:07.701004,129,-2390.1,0.0314,0.5114,0.9604
2025-07-17 14:09:07.801004,129,-2390.1,0.0424,0.5095,0.9482
2025-07-17 14:09:07.966786,132,-2127.9,0.0356,0.5122,0.9594
2025-07-17 14:09:08.066786,132,-2127.9,0.0402,0.5117,0.9455
2025-07-17 14:09:08.598597,138,-1603.6,0.0317,0.5046,0.9414
2025-07-17 14:09:08.698597,138,-1865.8,0.0402,0.5085,0.9521
2025-07-17 14:09:09.167271,144,-1865.8,0.0358,0.4992,0.9606
2025-07-17 14:09:09.267271,144,-1996.8,0.0334,0.5019,0.9558
2025-07-17 14:09:10.124220,153,-1734.7,0.0375,0.496,0.9687
2025-07-17 14:09:10.224220,153,-2127.9,0.0327,0.4936,0.9638
2025-07-17 14:09:10.444928,154,-1865.8,0.039,0.4926,0.957
2025-07-17 14:09:11.638317,168,-2127.9,0.0473,0.4768,0.9711
2025-07-17 14:09:11.738317,168,-2127.9,0.0488,0.4777,0.9794
2025-07-17 14:09:11.864039,171,-1996.8,0.0456,0.4799,0.9824
2025-07-17 14:09:11.964039,171,-1996.8,0.0449,0.4731,0.9526
2025-07-17 14:09:12.181501,174,-1996.8,0.0505,0.4785,0.9665
2025-07-17 14:09:12.281501,174,-2259.0,0.0498,0.478,0.9721
2025-07-17 14:09:12.336116,175,-2127.9,0.0551,0.4765,0.965
2025-07-17 14:09:12.468555,177,-2127.9,0.0493,0.4724,0.977
2025-07-17 14:09:12.568555,177,-1996.8,0.0437,0.4716,0.9675
2025-07-17 14:09:12.736301,180,-1603.6,0.05,0.4736,0.9572
2025-07-17 14:09:12.836301,180,-1734.7,0.0549,0.4672,0.8933
2025-07-17 14:09:12.936231,181,-1996.8,0.0493,0.4743,0.9506
2025-07-17 14:09:13.120842,183,-1996.8,0.0505,0.4714,0.9699
2025-07-17 14:09:13.220842,183,-1865.8,0.0429,0.4677,0.9721
2025-07-17 14:09:14.061787,193,-2390.1,0.0429,0.468,0.9685
2025-07-17 14:09:14.161787,193,-2259.0,0.0461,0.4675,0.9807
2025-07-17 14:09:14.268535,195,-2127.9,0.0427,0.4655,0.9916
2025-07-17 14:09:14.368535,195,-2127.9,0.0363,0.4628,0.9902
2025-07-17 14:09:14.575101,198,-2259.0,0.0354,0.4643,0.9641
2025-07-17 14:09:14.675101,198,-2127.9,0.0432,0.4655,0.965
2025-07-17 14:09:15.766554,210,-1996.8,0.0463,0.4658,0.9711
2025-07-17 14:09:15.866554,210,-2127.9,0.051,0.466,0.978
2025-07-17 14:09:16.063405,213,-1603.6,0.0451,0.4665,0.9807
2025-07-17 14:09:16.163405,213,-1472.6,0.0502,0.467,0.9794
2025-07-17 14:09:16.352625,216,-2127.9,0.048,0.4616,0.9721
2025-07-17 14:09:16.452625,216,-2259.0,0.0419,0.4648,0.9709
2025-07-17 14:09:16.734107,220,-1734.7,0.0424,0.465,0.9785
2025-07-17 14:09:16.834107,220,-1603.6,0.0456,0.4636,0.9765
2025-07-17 14:09:17.295700,225,-2259.0,0.0483,0.4643,0.977
2025-07-17 14:09:17.395700,225,-1996.8,0.0336,0.4628,0.9882
2025-07-17 14:09:17.864957,231,-2259.0,0.0498,0.466,0.9782
2025-07-17 14:09:17.964957,231,-1996.8,0.0515,0.4628,0.9663
2025-07-17 14:09:18.136794,234,-1865.8,0.0444,0.4628,0.9882
2025-07-17 14:09:18.236794,234,-2127.9,0.049,0.4658,0.989
2025-07-17 14:09:18.770634,240,-1996.8,0.0517,0.4616,0.978
2025-07-17 14:09:18.870634,240,-1865.8,0.0456,0.4599,0.977
2025-07-17 14:09:19.067643,243,-1734.7,0.0454,0.4606,0.9621
2025-07-17 14:09:19.167643,243,-1603.6,0.0168,0.457,0.9655
2025-07-17 14:09:20.615518,2,-1734.7,-0.0551,0.0173,1.0759
2025-07-17 14:09:20.715518,2,-1734.7,-0.0434,0.0131,1.0439
2025-07-17 14:09:21.333060,10,-1603.6,0.0939,-0.0227,1.081
2025-07-17 14:09:21.433060,10,-1996.8,0.0927,-0.0173,1.0878
2025-07-17 14:09:21.559637,11,-1734.7,0.1013,-0.0175,1.0817
2025-07-17 14:09:21.793264,14,-1472.6,0.0966,-0.0202,1.0793
2025-07-17 14:09:21.893264,14,-1734.7,0.0895,-0.0224,1.0754
2025-07-17 14:09:22.393202,20,-1734.7,0.0925,-0.0178,1.0883
2025-07-17 14:09:22.493202,20,-1603.6,0.0861,-0.0187,1.0832
2025-07-17 14:09:22.567007,22,-1341.5,0.0935,-0.0195,1.0849
2025-07-17 14:09:22.667007,22,-1472.6,0.0881,-0.0195,1.0886
2025-07-17 14:09:23.011925,23,-1734.7,0.0961,-0.0175,1.0847
2025-07-17 14:09:22.923264,25,-1734.7,0.101,-0.0205,1.0817
2025-07-17 14:09:23.023264,25,-1472.6,0.0905,-0.0144,1.0871
2025-07-17 14:09:23.236702,28,-1472.6,0.0939,-0.0122,1.0788
2025-07-17 14:09:23.336702,28,-1865.8,0.0937,-0.0185,1.0837
2025-07-17 14:09:23.360243,29,-1865.8,0.0944,-0.0192,1.0822
2025-07-17 14:09:23.893544,35,-1734.7,0.0913,-0.0205,1.0783
2025-07-17 14:09:23.993544,35,-1865.8,0.0891,-0.0166,1.0876
2025-07-17 14:09:25.032712,47,-1734.7,0.0898,-0.0161,1.0856
2025-07-17 14:09:25.132712,47,-1734.7,0.0876,-0.0156,1.0886
2025-07-17 14:09:25.380403,50,-1734.7,0.0886,-0.0192,1.0878
2025-07-17 14:09:25.480403,50,-1865.8,0.1166,-0.019,1.0771
2025-07-17 14:09:25.697741,52,-1865.8,0.0927,-0.0122,1.0832
2025-07-17 14:09:25.797741,52,-1734.7,0.0927,-0.0163,1.0861
2025-07-17 14:09:25.798383,53,-1734.7,0.0905,-0.0173,1.0842
2025-07-17 14:09:26.301720,59,-1865.8,0.0871,-0.0153,1.0815
2025-07-17 14:09:26.401720,59,-1734.7,0.0856,-0.0166,1.083
2025-07-17 14:09:26.434000,60,-1210.4,0.0898,-0.0114,1.08
2025-07-17 14:09:27.493653,71,-1472.6,0.0866,-0.0168,1.0834
2025-07-17 14:09:27.593653,71,-1210.4,0.091,-0.0151,1.0859
2025-07-17 14:09:28.026523,76,-1734.7,0.0866,-0.019,1.0861
2025-07-17 14:09:28.126523,76,-1865.8,0.0886,-0.0129,1.0827
2025-07-17 14:09:29.802624,92,-2127.9,0.0881,-0.0141,1.0844
2025-07-17 14:09:29.902624,92,-2259.0,0.0903,-0.0117,1.0878
2025-07-17 14:09:30.204263,98,-1472.6,0.0871,-0.0185,1.0866
2025-07-17 14:09:30.304263,98,-1603.6,0.0893,-0.0129,1.0895
2025-07-17 14:09:30.460796,101,-1865.8,0.0866,-0.0139,1.0915
2025-07-17 14:09:30.560796,101,-1865.8,0.0878,-0.0161,1.0922
2025-07-17 14:09:30.768834,104,-1734.7,0.0861,-0.0192,1.09
2025-07-17 14:09:30.868834,104,-1603.6,0.0891,-0.0192,1.0815
2025-07-17 14:09:31.624178,112,-1996.8,0.0874,-0.0158,1.0861
2025-07-17 14:09:31.724178,112,-1734.7,0.0842,-0.0151,1.0866
2025-07-17 14:09:31.796843,113,-1603.6,0.0827,-0.0178,1.0849
2025-07-17 14:09:32.213621,118,-1472.6,0.0881,-0.0168,1.0839
2025-07-17 14:09:32.313621,118,-1734.7,0.0905,-0.0107,1.0881
2025-07-17 14:09:32.589058,122,-1472.6,0.09,-0.0166,1.09
2025-07-17 14:09:32.689058,122,-1996.8,0.0876,-0.0131,1.0917
2025-07-17 14:09:33.265400,129,-1865.8,0.0908,-0.0168,1.0842
2025-07-17 14:09:33.365400,129,-1603.6,0.0859,-0.0158,1.0895
2025-07-17 14:09:33.492297,131,-1734.7,0.0925,-0.0163,1.0866
2025-07-17 14:09:33.592297,131,-1996.8,0.0908,-0.0124,1.0878
2025-07-17 14:09:34.660417,142,-1734.7,0.0898,-0.0126,1.0886
2025-07-17 14:09:34.760417,142,-1996.8,0.0869,-0.0168,1.09
2025-07-17 14:09:35.527067,151,-1603.6,0.0871,-0.0187,1.0834
2025-07-17 14:09:35.627067,151,-1865.8,0.0917,-0.0168,1.0869
2025-07-17 14:09:35.660664,152,-2127.9,0.0878,-0.0158,1.0822
2025-07-17 14:09:35.819247,154,-1865.8,0.0888,-0.0178,1.0817
2025-07-17 14:09:35.919247,154,-1865.8,0.0881,-0.017,1.0869
2025-07-17 14:09:35.965178,155,-1865.8,0.0891,-0.0156,1.0874
2025-07-17 14:09:36.428005,160,-1472.6,0.0888,-0.0161,1.0815
2025-07-17 14:09:36.528005,160,-1734.7,0.0881,-0.0183,1.0852
2025-07-17 14:09:36.589589,161,-1865.8,0.0891,-0.0192,1.0847
2025-07-17 14:09:36.786832,164,-1865.8,0.0883,-0.0134,1.0964
2025-07-17 14:09:36.886832,164,-1996.8,0.0876,-0.018,1.0874
2025-07-17 14:09:37.327177,169,-1210.4,0.0881,-0.0124,1.0798
2025-07-17 14:09:37.427177,169,-1472.6,0.0886,-0.0134,1.083
2025-07-17 14:09:37.468935,170,-1472.6,0.0871,-0.0144,1.0795
2025-07-17 14:09:37.690729,173,-1996.8,0.0869,-0.0185,1.0854
2025-07-17 14:09:37.790729,173,-1603.6,0.0883,-0.0144,1.0842
2025-07-17 14:09:37.927197,175,-1341.5,0.0935,-0.0173,1.0927
2025-07-17 14:09:38.027197,175,-1603.6,0.0905,-0.0175,1.0827
2025-07-17 14:09:38.310666,176,-1603.6,0.0898,-0.0158,1.082
2025-07-17 14:09:38.517090,181,-1079.3,0.0895,-0.0119,1.0832
2025-07-17 14:09:38.617090,181,-1210.4,0.0854,-0.0173,1.082
2025-07-17 14:09:38.834157,185,-1472.6,0.0903,-0.0153,1.0832
2025-07-17 14:09:38.934157,185,-1734.7,0.0903,-0.0156,1.0832
2025-07-17 14:09:39.168671,188,-1472.6,0.091,-0.0136,1.0883
2025-07-17 14:09:39.268671,188,-1734.7,0.0834,-0.0134,1.0864
2025-07-17 14:09:39.432991,191,-1210.4,0.0883,-0.0141,1.0915
2025-07-17 14:09:39.532991,191,-1603.6,0.0861,-0.0122,1.0856
2025-07-17 14:09:39.663982,193,-1472.6,0.0861,-0.0148,1.0825
2025-07-17 14:09:39.763982,193,-1472.6,0.0881,-0.0161,1.0861
2025-07-17 14:09:39.917800,194,-1734.7,0.083,-0.0178,1.0781
2025-07-17 14:09:40.065083,197,-1734.7,0.0893,-0.0192,1.0871
2025-07-17 14:09:40.165083,197,-1734.7,0.0871,-0.0163,1.0822
2025-07-17 14:09:40.390071,200,-1865.8,0.0893,-0.0166,1.0844
2025-07-17 14:09:40.490071,200,-1603.6,0.0898,-0.0131,1.0825
2025-07-17 14:09:40.699336,203,-1472.6,0.0893,-0.0134,1.0834
2025-07-17 14:09:40.799336,203,-1472.6,0.0886,-0.0161,1.0859
2025-07-17 14:09:40.969773,206,-1734.7,0.0861,-0.0139,1.0876
2025-07-17 14:09:41.069773,206,-1603.6,0.0927,-0.019,1.0886
2025-07-17 14:09:41.263383,209,-1865.8,0.0903,-0.0163,1.081
2025-07-17 14:09:41.363383,209,-1734.7,0.0905,-0.0126,1.0803
2025-07-17 14:09:41.862101,215,-1734.7,0.0927,-0.0146,1.0844
2025-07-17 14:09:41.962101,215,-1472.6,0.0878,-0.018,1.0876
2025-07-17 14:09:42.163226,218,-1865.8,0.0893,-0.0151,1.0891
2025-07-17 14:09:42.263226,218,-1603.6,0.091,-0.0205,1.0883
2025-07-17 14:09:42.487556,221,-1210.4,0.0893,-0.0141,1.0844
2025-07-17 14:09:42.587556,221,-1341.5,0.0834,-0.0161,1.0905
2025-07-17 14:09:42.810710,224,-1603.6,0.0888,-0.0185,1.0854
2025-07-17 14:09:42.910710,224,-1603.6,0.0903,-0.0136,1.0817
2025-07-17 14:09:43.091025,227,-1341.5,0.0908,-0.0144,1.0898
2025-07-17 14:09:43.191025,227,-1210.4,0.0878,-0.0161,1.0871
2025-07-17 14:09:43.666071,233,-1734.7,0.0866,-0.0139,1.0844
2025-07-17 14:09:43.766071,233,-1865.8,0.0864,-0.0131,1.0825
2025-07-17 14:09:43.967509,236,-1865.8,0.0856,-0.0168,1.0869
2025-07-17 14:09:44.067509,236,-1734.7,0.0964,-0.0141,1.0842
2025-07-17 14:09:44.291037,239,-1341.5,0.0881,-0.0131,1.0832
2025-07-17 14:09:44.391037,239,-1472.6,0.0915,-0.0158,1.0864
2025-07-17 14:09:44.895255,245,-1734.7,0.0861,-0.0183,1.0861
2025-07-17 14:09:44.995255,245,-1341.5,0.0876,-0.0114,1.0827
2025-07-17 14:09:45.032649,246,-1341.5,0.0979,-0.0205,1.0625
2025-07-17 14:09:45.167531,248,-1472.6,0.083,-0.0156,1.0883
2025-07-17 14:09:45.267531,248,-1603.6,0.071,-0.0197,1.0815
2025-07-17 14:09:45.470474,251,-1472.6,0.0856,-0.0236,1.0861
2025-07-17 14:09:45.570474,251,-1603.6,0.0954,-0.0144,1.091
2025-07-17 14:09:46.120039,1,-1734.7,0.091,-0.0139,1.0898
2025-07-17 14:09:46.220039,1,-1603.6,0.092,-0.0146,1.0839
2025-07-17 14:09:46.363158,4,-1603.6,0.1025,-0.0056,1.0883
2025-07-17 14:09:46.463158,4,-1734.7,0.0878,-0.017,1.0815
2025-07-17 14:09:46.664526,7,-1472.6,0.0866,-0.0102,1.0949
2025-07-17 14:09:46.764526,7,-1603.6,0.0925,-0.0178,1.0866
2025-07-17 14:09:47.249689,10,-1210.4,0.0927,-0.0122,1.0866
2025-07-17 14:09:47.349689,10,-1210.4,0.0915,-0.0114,1.0839
2025-07-17 14:09:47.590831,16,-1734.7,0.0891,-0.0168,1.0895
2025-07-17 14:09:47.690831,16,-1603.6,0.0864,-0.01,1.0771
2025-07-17 14:09:47.792138,17,-1734.7,0.0883,-0.0195,1.0937
2025-07-17 14:09:48.149033,19,-2127.9,0.0864,-0.0131,1.0878
2025-07-17 14:09:48.249033,19,-1865.8,0.091,-0.0131,1.0844
2025-07-17 14:09:48.465170,25,-1603.6,0.0856,-0.0131,1.0817
2025-07-17 14:09:48.565170,25,-1734.7,0.0917,-0.009,1.0881
2025-07-17 14:09:49.093391,31,-1865.8,0.091,-0.0114,1.0942
2025-07-17 14:09:49.193391,31,-1603.6,0.0861,-0.0163,1.082
2025-07-17 14:09:49.691408,37,-1472.6,0.0869,-0.0124,1.0861
2025-07-17 14:09:49.791408,37,-1472.6,0.0925,-0.009,1.0922
2025-07-17 14:09:50.266697,43,-1472.6,0.0915,-0.0148,1.0866
2025-07-17 14:09:50.366697,43,-1341.5,0.0847,-0.0156,1.0812
2025-07-17 14:09:50.561099,46,-1341.5,0.0891,-0.017,1.0864
2025-07-17 14:09:50.661099,46,-1210.4,0.091,-0.0134,1.0781
2025-07-17 14:09:50.925116,49,-1472.6,0.0908,-0.0117,1.0935
2025-07-17 14:09:51.025116,49,-1472.6,0.093,-0.0134,1.083
2025-07-17 14:09:51.168474,52,-1079.3,0.0905,-0.0131,1.0844
2025-07-17 14:09:51.268474,52,-1603.6,0.0895,-0.0141,1.0842
2025-07-17 14:09:51.466111,55,-1472.6,0.0895,-0.0119,1.081
2025-07-17 14:09:51.566111,55,-1210.4,0.0922,-0.0124,1.0866
2025-07-17 14:09:51.759594,58,-1996.8,0.0888,-0.0104,1.08
2025-07-17 14:09:51.859594,58,-1472.6,0.0925,-0.0158,1.0812
2025-07-17 14:09:52.066333,61,-1472.6,0.0913,-0.0095,1.0876
2025-07-17 14:09:52.166333,61,-1603.6,0.0874,-0.0166,1.0898
2025-07-17 14:09:52.432817,65,-1472.6,0.0874,-0.0148,1.0844
2025-07-17 14:09:52.532817,65,-1472.6,0.0913,-0.0146,1.0864
2025-07-17 14:09:54.167119,82,-1734.7,0.0979,-0.0122,1.0871
2025-07-17 14:09:54.267119,82,-1734.7,0.091,-0.0158,1.0793
2025-07-17 14:09:54.794616,88,-1210.4,0.0895,-0.0107,1.0859
2025-07-17 14:09:54.894616,88,-1341.5,0.0898,-0.0129,1.0925
2025-07-17 14:09:55.337302,92,-1472.6,0.0915,-0.0124,1.0817
2025-07-17 14:09:55.437302,92,-1734.7,0.0908,-0.0119,1.0817
2025-07-17 14:09:55.386893,94,-1603.6,0.0913,-0.0078,1.0817
2025-07-17 14:09:55.486893,94,-1341.5,0.0888,-0.0119,1.082
2025-07-17 14:09:55.663976,97,-1603.6,0.09,-0.0124,1.082
2025-07-17 14:09:55.763976,97,-1865.8,0.0905,-0.0153,1.0866
2025-07-17 14:09:56.865630,109,-1210.4,0.0903,-0.0148,1.0844
2025-07-17 14:09:56.965630,109,-1734.7,0.0937,-0.0168,1.0842
2025-07-17 14:09:57.263127,113,-1472.6,0.0891,-0.0117,1.0874
2025-07-17 14:09:57.363127,113,-1341.5,0.0891,-0.0134,1.0832
2025-07-17 14:09:57.751348,116,-1603.6,0.0866,-0.0146,1.0866
2025-07-17 14:09:57.851348,116,-1734.7,0.0859,-0.0161,1.0825
2025-07-17 14:09:58.068413,121,-1603.6,0.0881,-0.0126,1.0854
2025-07-17 14:09:58.168413,121,-1472.6,0.0886,-0.0078,1.083
2025-07-17 14:09:58.367251,124,-1341.5,0.0864,-0.0156,1.0803
2025-07-17 14:09:58.467251,124,-1472.6,0.0913,-0.0119,1.0847
2025-07-17 14:09:58.659563,127,-1734.7,0.091,-0.0153,1.0771
2025-07-17 14:09:58.759563,127,-1472.6,0.0883,-0.0126,1.0891
2025-07-17 14:09:58.996880,130,-1472.6,0.0876,-0.0117,1.0878
2025-07-17 14:09:59.096880,130,-1341.5,0.0876,-0.0122,1.0844
2025-07-17 14:09:59.593245,136,-1341.5,0.0922,-0.0153,1.0876
2025-07-17 14:09:59.693245,136,-1472.6,0.0874,-0.0122,1.0866
2025-07-17 14:09:59.832165,139,-1734.7,0.093,-0.0139,1.0803
2025-07-17 14:09:59.932165,139,-1603.6,0.0883,-0.0195,1.0822
2025-07-17 14:10:01.064699,151,-1865.8,0.0881,-0.0148,1.0827
2025-07-17 14:10:01.164699,151,-1865.8,0.0939,-0.0124,1.0891
2025-07-17 14:10:01.362746,154,-1603.6,0.0888,-0.0119,1.0788
2025-07-17 14:10:01.462746,154,-1734.7,0.0886,-0.0131,1.0903
2025-07-17 14:10:02.024489,160,-1603.6,0.0917,-0.0104,1.0832
2025-07-17 14:10:02.124489,160,-1472.6,0.0864,-0.0112,1.0871
2025-07-17 14:10:02.893658,169,-1603.6,0.0888,-0.0141,1.0898
2025-07-17 14:10:02.993658,169,-1734.7,0.0886,-0.0124,1.0822
2025-07-17 14:10:03.418701,174,-1603.6,0.092,-0.0114,1.0957
2025-07-17 14:10:03.518701,174,-1734.7,0.0905,-0.0173,1.0852
2025-07-17 14:10:03.560096,175,-1341.5,0.0932,-0.0136,1.0849
2025-07-17 14:10:03.718617,177,-1472.6,0.0908,-0.0141,1.0905
2025-07-17 14:10:03.818617,177,-1996.8,0.0874,-0.0107,1.0883
2025-07-17 14:10:03.863722,178,-1865.8,0.0883,-0.0136,1.0866
2025-07-17 14:10:04.016772,180,-1865.8,0.0903,-0.0151,1.0825
2025-07-17 14:10:04.116772,180,-1734.7,0.092,-0.0114,1.0808
2025-07-17 14:10:04.194530,181,-1865.8,0.0898,-0.0104,1.0856
2025-07-17 14:10:04.332579,184,-1734.7,0.0881,-0.0109,1.092
2025-07-17 14:10:04.432579,184,-1865.8,0.0881,-0.0158,1.0825
2025-07-17 14:10:05.220167,192,-1472.6,0.0903,-0.0146,1.0874
2025-07-17 14:10:05.320167,192,-1472.6,0.09,-0.0151,1.09
2025-07-17 14:10:05.529146,195,-1603.6,0.0888,-0.0119,1.0832
2025-07-17 14:10:05.629146,195,-1865.8,0.0905,-0.0131,1.0891
2025-07-17 14:10:05.633214,196,-1996.8,0.0871,-0.0126,1.0847
2025-07-17 14:10:05.992498,200,-1603.6,0.0908,-0.0131,1.0844
2025-07-17 14:10:06.092498,200,-1603.6,0.0895,-0.0136,1.0847
2025-07-17 14:10:06.213799,201,-1341.5,0.0891,-0.0151,1.0893
2025-07-17 14:10:06.264703,202,-1603.6,0.0888,-0.0144,1.0878
2025-07-17 14:10:06.433400,205,-1865.8,0.0925,-0.0163,1.0852
2025-07-17 14:10:06.533400,205,-1865.8,0.0888,-0.0153,1.0847
2025-07-17 14:10:06.742013,207,-1865.8,0.0866,-0.0114,1.0822
2025-07-17 14:10:06.842013,207,-1865.8,0.0881,-0.0158,1.0866
2025-07-17 14:10:07.092628,211,-1603.6,0.0866,-0.0126,1.0859
2025-07-17 14:10:07.192628,211,-1734.7,0.0883,-0.0141,1.0917
2025-07-17 14:10:07.337835,213,-1996.8,0.0886,-0.0173,1.0849
2025-07-17 14:10:07.437835,213,-1865.8,0.0888,-0.0134,1.0891
2025-07-17 14:10:07.499506,215,-1603.6,0.0869,-0.0146,1.0856
2025-07-17 14:10:07.599506,215,-1603.6,0.0903,-0.0126,1.0927
2025-07-17 14:10:07.942435,217,-1603.6,0.0886,-0.0161,1.0815
2025-07-17 14:10:08.042435,217,-1865.8,0.093,-0.0148,1.0864
2025-07-17 14:10:08.051271,220,-1472.6,0.091,-0.0166,1.0856
2025-07-17 14:10:08.151271,220,-1472.6,0.0866,-0.0178,1.0871
2025-07-17 14:10:08.159626,221,-1734.7,0.0927,-0.0144,1.0854
2025-07-17 14:10:08.487484,222,-2127.9,0.09,-0.0139,1.0842
2025-07-17 14:10:08.433410,224,-1865.8,0.0869,-0.0161,1.0856
2025-07-17 14:10:08.533410,224,-1603.6,0.0886,-0.0156,1.0881
2025-07-17 14:10:08.533937,225,-1341.5,0.091,-0.018,1.0883
2025-07-17 14:10:09.159469,232,-1603.6,0.0871,-0.0129,1.0842
2025-07-17 14:10:09.259469,232,-1472.6,0.0898,-0.01,1.0917
2025-07-17 14:10:09.422925,234,-1603.6,0.0888,-0.0156,1.0927
2025-07-17 14:10:09.522925,234,-1472.6,0.0903,-0.018,1.0844
2025-07-17 14:10:09.747898,235,-1210.4,0.0886,-0.0095,1.0876
2025-07-17 14:10:09.695309,237,-1472.6,0.0939,-0.0212,1.0871
2025-07-17 14:10:09.795309,237,-1603.6,0.0852,-0.0158,1.0854
2025-07-17 14:10:09.833013,238,-1603.6,0.0917,-0.0166,1.0817
2025-07-17 14:10:09.933827,239,-1734.7,0.09,-0.0122,1.0895
2025-07-17 14:10:10.365138,244,-1865.8,0.0878,-0.0134,1.0959
2025-07-17 14:10:10.465138,244,-1865.8,0.0908,-0.0117,1.0908
2025-07-17 14:10:11.265525,253,-1734.7,0.0898,-0.0134,1.0866
2025-07-17 14:10:11.365525,253,-1734.7,0.0837,-0.0134,1.0859
2025-07-17 14:10:11.605276,0,-1865.8,0.0849,-0.0163,1.0847
2025-07-17 14:10:11.705276,0,-1865.8,0.0895,-0.0144,1.0886
2025-07-17 14:10:12.263691,7,-1734.7,0.0891,-0.0134,1.0815
2025-07-17 14:10:12.363691,7,-1865.8,0.0895,-0.0124,1.0861
2025-07-17 14:10:13.063433,15,-2127.9,0.0927,-0.0144,1.0883
2025-07-17 14:10:13.163433,15,-2127.9,0.091,-0.0166,1.0913
2025-07-17 14:10:13.363664,18,-1865.8,0.0913,-0.0122,1.0839
2025-07-17 14:10:13.463664,18,-1996.8,0.0913,-0.017,1.0888
2025-07-17 14:10:13.958461,24,-1865.8,0.0895,-0.0141,1.0861
2025-07-17 14:10:14.058461,24,-1996.8,0.0861,-0.0114,1.0844
2025-07-17 14:10:14.340517,25,-1865.8,0.0856,-0.0151,1.0925
2025-07-17 14:10:14.295867,27,-1996.8,0.0922,-0.0126,1.0856
2025-07-17 14:10:14.395867,27,-2521.1,0.091,-0.0122,1.0837
2025-07-17 14:10:14.433677,28,-2259.0,0.0866,-0.0187,1.0905
2025-07-17 14:10:15.161240,36,-1734.7,0.0925,-0.0136,1.083
2025-07-17 14:10:15.261240,36,-1603.6,0.0908,-0.0163,1.0832
2025-07-17 14:10:15.831929,43,-1996.8,0.0886,-0.0136,1.0891
2025-07-17 14:10:15.931929,43,-2127.9,0.0837,-0.0158,1.0895
2025-07-17 14:10:16.063936,45,-1865.8,0.0883,-0.0156,1.0798
2025-07-17 14:10:16.163936,45,-1865.8,0.0891,-0.0166,1.0849
2025-07-17 14:10:16.374670,48,-2259.0,0.0864,-0.0163,1.0825
2025-07-17 14:10:16.474670,48,-1996.8,0.0864,-0.0153,1.0915
2025-07-17 14:10:16.661920,51,-2390.1,0.0903,-0.0153,1.0817
2025-07-17 14:10:16.761920,51,-2390.1,0.0852,-0.0136,1.0874
2025-07-17 14:10:16.963355,54,-1996.8,0.0891,-0.0131,1.0871
2025-07-17 14:10:17.063355,54,-2127.9,0.0888,-0.0131,1.0847
2025-07-17 14:10:17.225983,55,-2390.1,0.0891,-0.0153,1.0895
2025-07-17 14:10:17.422520,58,-2127.9,0.0888,-0.0124,1.0839
2025-07-17 14:10:17.522520,58,-2259.0,0.0876,-0.0107,1.083
2025-07-17 14:10:17.594042,59,-2521.1,0.0937,-0.0148,1.0913
2025-07-17 14:10:17.734468,62,-2127.9,0.0847,-0.0163,1.0944
2025-07-17 14:10:17.834468,62,-2259.0,0.0888,-0.0139,1.0878
2025-07-17 14:10:17.931883,63,-2259.0,0.091,-0.0126,1.0812
2025-07-17 14:10:18.191853,66,-2259.0,0.0908,-0.0156,1.0864
2025-07-17 14:10:18.291853,66,-1996.8,0.0893,-0.0168,1.0895
2025-07-17 14:10:18.333344,67,-1996.8,0.0927,-0.0124,1.0883
2025-07-17 14:10:18.496813,68,-2521.1,0.0864,-0.0139,1.0886
2025-07-17 14:10:18.533686,69,-2390.1,0.0905,-0.0139,1.0839
