timestamp,packet_id,pressure,accel_x,accel_y,accel_z
2025-07-15 18:56:51.072202,235,1147.9,-0.019,-0.0258,1.1437
2025-07-15 18:56:51.172202,235,1147.9,0.0124,-0.0107,1.2062
2025-07-15 18:56:51.272202,235,754.6,-0.0007,-0.0129,1.125
2025-07-15 18:56:51.256172,236,1147.9,0.0124,-0.0107,1.2062
2025-07-15 18:56:51.356172,236,754.6,-0.0007,-0.0129,1.125
2025-07-15 18:56:51.456172,236,754.6,-0.0024,-0.0124,1.1267
2025-07-15 18:56:51.557987,239,885.7,-0.0024,-0.0163,1.1225
2025-07-15 18:56:51.657987,239,623.6,-0.0019,-0.0156,1.1193
2025-07-15 18:56:51.757987,239,754.6,-0.0051,-0.0173,1.125
2025-07-15 18:56:51.857617,242,754.6,-0.0039,-0.0166,1.1174
2025-07-15 18:56:51.957617,242,754.6,-0.0029,-0.0095,1.1223
2025-07-15 18:56:52.057617,242,1016.8,-0.0019,-0.0131,1.124
2025-07-15 18:56:52.153514,245,885.7,0.0014,-0.0124,1.122
2025-07-15 18:56:52.253514,245,885.7,-0.0021,-0.0124,1.1315
2025-07-15 18:56:52.353514,245,885.7,-0.0007,-0.0148,1.1289
2025-07-15 18:56:52.454705,246,885.7,-0.0021,-0.0124,1.1315
2025-07-15 18:56:52.554705,246,885.7,-0.0007,-0.0148,1.1289
2025-07-15 18:56:52.654705,246,885.7,-0.0036,-0.0139,1.121
2025-07-15 18:56:52.455264,248,885.7,-0.0036,-0.0139,1.121
2025-07-15 18:56:52.555264,248,1016.8,-0.0026,-0.0166,1.1315
2025-07-15 18:56:52.655264,248,1016.8,0.0009,-0.0161,1.1242
2025-07-15 18:56:52.753880,251,1016.8,-0.0021,-0.0163,1.1242
2025-07-15 18:56:52.853880,251,885.7,-0.0029,-0.0129,1.1264
2025-07-15 18:56:52.953880,251,1016.8,-0.0068,-0.0107,1.1262
2025-07-15 18:56:52.770745,252,885.7,-0.0029,-0.0129,1.1264
2025-07-15 18:56:52.870745,252,1016.8,-0.0068,-0.0107,1.1262
2025-07-15 18:56:52.970745,252,1278.9,-0.0014,-0.0178,1.1274
2025-07-15 18:56:53.059500,254,1278.9,-0.0014,-0.0178,1.1274
2025-07-15 18:56:53.159500,254,1147.9,-0.0004,-0.0117,1.1237
2025-07-15 18:56:53.259500,254,623.6,-0.0009,-0.0168,1.1232
2025-07-15 18:56:53.071677,255,1147.9,-0.0004,-0.0117,1.1237
2025-07-15 18:56:53.171677,255,623.6,-0.0009,-0.0168,1.1232
2025-07-15 18:56:53.271677,255,361.4,-0.0036,-0.0139,1.1279
2025-07-15 18:56:53.406901,2,361.4,-0.0034,-0.0166,1.1203
2025-07-15 18:56:53.506901,2,754.6,-0.0061,-0.0175,1.1206
2025-07-15 18:56:53.606901,2,754.6,-0.0017,-0.0129,1.1215
2025-07-15 18:56:53.948494,5,885.7,-0.0048,-0.0148,1.1225
2025-07-15 18:56:54.048494,5,1016.8,-0.0002,-0.0124,1.1223
2025-07-15 18:56:54.148494,5,1147.9,0.0,-0.0178,1.1252
2025-07-15 18:56:53.949137,7,1147.9,0.0,-0.0178,1.1252
2025-07-15 18:56:54.049137,7,1016.8,-0.0017,-0.0131,1.1276
2025-07-15 18:56:54.149137,7,885.7,-0.0024,-0.0126,1.1254
2025-07-15 18:56:54.256176,8,1016.8,-0.0017,-0.0131,1.1276
2025-07-15 18:56:54.356176,8,885.7,-0.0024,-0.0126,1.1254
2025-07-15 18:56:54.456176,8,885.7,-0.0019,-0.0144,1.1215
2025-07-15 18:56:54.263249,10,885.7,-0.0019,-0.0144,1.1215
2025-07-15 18:56:54.363249,10,885.7,-0.0034,-0.0151,1.1188
2025-07-15 18:56:54.463249,10,1016.8,-0.0043,-0.0114,1.122
2025-07-15 18:56:54.270933,11,885.7,-0.0034,-0.0151,1.1188
2025-07-15 18:56:54.370933,11,1016.8,-0.0043,-0.0114,1.122
2025-07-15 18:56:54.470933,11,1016.8,-0.0019,-0.0136,1.1223
2025-07-15 18:56:54.872782,17,754.6,0.0012,-0.0131,1.1206
2025-07-15 18:56:54.972782,17,754.6,-0.0036,-0.0119,1.1235
2025-07-15 18:56:55.072782,17,1016.8,-0.0024,-0.0146,1.1193
2025-07-15 18:56:55.449324,19,1016.8,-0.0024,-0.0146,1.1193
2025-07-15 18:56:55.549324,19,885.7,0.0004,-0.0148,1.121
2025-07-15 18:56:55.649324,19,1016.8,0.0021,-0.0112,1.1252
2025-07-15 18:56:55.471502,23,492.5,0.0,-0.0146,1.124
2025-07-15 18:56:55.571502,23,492.5,-0.0017,-0.0114,1.1218
2025-07-15 18:56:55.671502,23,623.6,0.0002,-0.0166,1.1228
2025-07-15 18:56:56.055998,28,1016.8,0.0007,-0.0173,1.1208
2025-07-15 18:56:56.155998,28,885.7,-0.0017,-0.0136,1.1274
2025-07-15 18:56:56.255998,28,1147.9,-0.0043,-0.0117,1.1247
2025-07-15 18:56:56.070156,29,885.7,-0.0017,-0.0136,1.1274
2025-07-15 18:56:56.170156,29,1147.9,-0.0043,-0.0117,1.1247
2025-07-15 18:56:56.270156,29,1016.8,-0.0014,-0.0129,1.1213
2025-07-15 18:56:56.356337,31,1016.8,-0.0014,-0.0129,1.1213
2025-07-15 18:56:56.456337,31,754.6,-0.0043,-0.0146,1.1196
2025-07-15 18:56:56.556337,31,754.6,0.0009,-0.0122,1.1274
2025-07-15 18:56:56.671897,35,1016.8,-0.0019,-0.0141,1.1213
2025-07-15 18:56:56.771897,35,1147.9,-0.0063,-0.0112,1.1228
2025-07-15 18:56:56.871897,35,1016.8,-0.0036,-0.0117,1.1213
2025-07-15 18:56:56.959472,37,1016.8,-0.0036,-0.0117,1.1213
2025-07-15 18:56:57.059472,37,1147.9,-0.0024,-0.009,1.1186
2025-07-15 18:56:57.159472,37,1016.8,-0.0039,-0.0124,1.1276
2025-07-15 18:56:57.558005,43,1016.8,0.0024,-0.0122,1.1215
2025-07-15 18:56:57.658005,43,885.7,-0.0034,-0.0129,1.1257
2025-07-15 18:56:57.758005,43,885.7,-0.0031,-0.0148,1.1201
2025-07-15 18:56:57.571651,44,885.7,-0.0034,-0.0129,1.1257
2025-07-15 18:56:57.671651,44,885.7,-0.0031,-0.0148,1.1201
2025-07-15 18:56:57.771651,44,623.6,-0.0029,-0.0148,1.1318
2025-07-15 18:56:57.858301,46,623.6,-0.0029,-0.0148,1.1318
2025-07-15 18:56:57.958301,46,623.6,-0.0024,-0.0136,1.1176
2025-07-15 18:56:58.058301,46,623.6,-0.0009,-0.0187,1.1289
2025-07-15 18:56:57.873148,47,623.6,-0.0024,-0.0136,1.1176
2025-07-15 18:56:57.973148,47,623.6,-0.0009,-0.0187,1.1289
2025-07-15 18:56:58.073148,47,754.6,0.0034,-0.0161,1.1247
2025-07-15 18:56:58.450931,52,885.7,0.0012,-0.0144,1.1186
2025-07-15 18:56:58.550931,52,754.6,-0.0004,-0.0146,1.1206
2025-07-15 18:56:58.650931,52,885.7,-0.0017,-0.017,1.1279
2025-07-15 18:56:58.472766,53,754.6,-0.0004,-0.0146,1.1206
2025-07-15 18:56:58.572766,53,885.7,-0.0017,-0.017,1.1279
2025-07-15 18:56:58.672766,53,1016.8,-0.0046,-0.0126,1.1223
2025-07-15 18:56:58.759572,55,1016.8,-0.0046,-0.0126,1.1223
2025-07-15 18:56:58.859572,55,623.6,-0.0039,-0.0148,1.121
2025-07-15 18:56:58.959572,55,492.5,-0.0039,-0.0168,1.1237
2025-07-15 18:56:59.055445,58,885.7,-0.0024,-0.0124,1.123
2025-07-15 18:56:59.155445,58,1016.8,-0.0039,-0.0178,1.1276
2025-07-15 18:56:59.255445,58,885.7,-0.0036,-0.0168,1.1152
2025-07-15 18:56:59.357045,59,1016.8,-0.0039,-0.0178,1.1276
2025-07-15 18:56:59.457045,59,885.7,-0.0036,-0.0168,1.1152
2025-07-15 18:56:59.557045,59,754.6,-0.0043,-0.0129,1.121
2025-07-15 18:56:59.371617,61,754.6,-0.0043,-0.0129,1.121
2025-07-15 18:56:59.471617,61,754.6,-0.0031,-0.0153,1.1262
2025-07-15 18:56:59.571617,61,885.7,-0.0075,-0.0126,1.124
2025-07-15 18:56:59.372114,62,754.6,-0.0031,-0.0153,1.1262
2025-07-15 18:56:59.472114,62,885.7,-0.0075,-0.0126,1.124
2025-07-15 18:56:59.572114,62,885.7,-0.0029,-0.0146,1.1257
2025-07-15 18:56:59.673670,65,1016.8,-0.0007,-0.0183,1.123
2025-07-15 18:56:59.773670,65,885.7,-0.0034,-0.0097,1.1225
2025-07-15 18:56:59.873670,65,885.7,-0.0014,-0.0151,1.1279
2025-07-15 18:57:00.255518,68,492.5,0.0002,-0.0168,1.1186
2025-07-15 18:57:00.355518,68,754.6,0.0,-0.0139,1.1264
2025-07-15 18:57:00.455518,68,1016.8,-0.0014,-0.0153,1.1232
2025-07-15 18:57:00.256187,70,1016.8,-0.0014,-0.0153,1.1232
2025-07-15 18:57:00.356187,70,1016.8,-0.0004,-0.0156,1.125
2025-07-15 18:57:00.456187,70,1016.8,-0.0095,-0.0107,1.1264
2025-07-15 18:57:00.271862,71,1016.8,-0.0004,-0.0156,1.125
2025-07-15 18:57:00.371862,71,1016.8,-0.0095,-0.0107,1.1264
2025-07-15 18:57:00.471862,71,1147.9,-0.0092,-0.02,1.1157
2025-07-15 18:57:00.565242,73,1147.9,-0.0092,-0.02,1.1157
2025-07-15 18:57:00.665242,73,1147.9,-0.0061,-0.0187,1.1118
2025-07-15 18:57:00.765242,73,885.7,-0.0014,-0.0119,1.1223
2025-07-15 18:57:00.841695,74,1147.9,-0.0061,-0.0187,1.1118
2025-07-15 18:57:00.941695,74,885.7,-0.0014,-0.0119,1.1223
2025-07-15 18:57:01.041695,74,885.7,0.0004,-0.0131,1.1232
2025-07-15 18:57:01.156797,79,754.6,-0.0043,-0.0126,1.1257
2025-07-15 18:57:01.256797,79,1016.8,0.0019,-0.0146,1.1213
2025-07-15 18:57:01.356797,79,1278.9,-0.0068,-0.0131,1.1184
2025-07-15 18:57:01.171698,80,1016.8,0.0019,-0.0146,1.1213
2025-07-15 18:57:01.271698,80,1278.9,-0.0068,-0.0131,1.1184
2025-07-15 18:57:01.371698,80,1016.8,-0.0021,-0.0168,1.1269
2025-07-15 18:57:01.472440,83,885.7,0.0109,-0.0261,1.166
2025-07-15 18:57:01.572440,83,885.7,0.0002,-0.0117,1.1203
2025-07-15 18:57:01.672440,83,885.7,-0.0009,-0.0124,1.1101
2025-07-15 18:57:01.815401,86,1016.8,-0.0039,-0.0158,1.1208
2025-07-15 18:57:01.915401,86,1278.9,-0.0024,-0.0144,1.123
2025-07-15 18:57:02.015401,86,1278.9,-0.0017,-0.0158,1.1254
2025-07-15 18:57:02.052234,88,1278.9,-0.0017,-0.0158,1.1254
2025-07-15 18:57:02.152234,88,885.7,-0.0036,-0.0134,1.1247
2025-07-15 18:57:02.252234,88,885.7,0.0009,-0.0126,1.1181
2025-07-15 18:57:02.655851,94,754.6,-0.0012,-0.0129,1.1203
2025-07-15 18:57:02.755851,94,623.6,0.0009,-0.0131,1.1242
2025-07-15 18:57:02.855851,94,623.6,-0.0041,-0.0141,1.1252
2025-07-15 18:57:02.670436,95,623.6,0.0009,-0.0131,1.1242
2025-07-15 18:57:02.770436,95,623.6,-0.0041,-0.0141,1.1252
2025-07-15 18:57:02.870436,95,754.6,0.0019,-0.01,1.1232
2025-07-15 18:57:02.958733,97,754.6,0.0019,-0.01,1.1232
2025-07-15 18:57:03.058733,97,623.6,-0.0031,-0.0109,1.1335
2025-07-15 18:57:03.158733,97,754.6,-0.0078,-0.0131,1.1352
2025-07-15 18:57:03.254614,100,754.6,-0.0114,-0.0175,1.1271
2025-07-15 18:57:03.354614,100,885.7,-0.0014,-0.0173,1.1247
2025-07-15 18:57:03.454614,100,623.6,-0.0029,-0.0107,1.124
2025-07-15 18:57:03.370051,102,623.6,-0.0029,-0.0107,1.124
2025-07-15 18:57:03.470051,102,492.5,-0.0014,-0.0153,1.1203
2025-07-15 18:57:03.570051,102,492.5,-0.0014,-0.019,1.1369
2025-07-15 18:57:03.557493,103,492.5,-0.0014,-0.0153,1.1203
2025-07-15 18:57:03.657493,103,492.5,-0.0014,-0.019,1.1369
2025-07-15 18:57:03.757493,103,623.6,-0.0024,-0.0156,1.1301
2025-07-15 18:57:04.153437,109,885.7,-0.0046,-0.0148,1.1259
2025-07-15 18:57:04.253437,109,1016.8,0.0004,-0.0114,1.1298
2025-07-15 18:57:04.353437,109,1147.9,-0.0053,-0.0144,1.1259
2025-07-15 18:57:04.170567,110,1016.8,0.0004,-0.0114,1.1298
2025-07-15 18:57:04.270567,110,1147.9,-0.0053,-0.0144,1.1259
2025-07-15 18:57:04.370567,110,1147.9,-0.0004,-0.0144,1.1169
2025-07-15 18:57:04.752277,115,754.6,-0.0009,-0.0148,1.1257
2025-07-15 18:57:04.852277,115,623.6,0.0017,-0.018,1.1157
2025-07-15 18:57:04.952277,115,754.6,0.0009,-0.0153,1.1257
2025-07-15 18:57:05.071004,119,1147.9,-0.0014,-0.0141,1.1213
2025-07-15 18:57:05.171004,119,754.6,-0.0046,-0.0175,1.1281
2025-07-15 18:57:05.271004,119,492.5,0.0017,-0.0119,1.1203
2025-07-15 18:57:05.354860,121,492.5,0.0017,-0.0119,1.1203
2025-07-15 18:57:05.454860,121,623.6,0.0043,-0.0192,1.1201
2025-07-15 18:57:05.554860,121,885.7,-0.0046,-0.0139,1.1196
2025-07-15 18:57:05.372052,122,623.6,0.0043,-0.0192,1.1201
2025-07-15 18:57:05.472052,122,885.7,-0.0046,-0.0139,1.1196
2025-07-15 18:57:05.572052,122,885.7,-0.0007,-0.0102,1.1208
2025-07-15 18:57:05.655915,124,885.7,-0.0007,-0.0102,1.1208
2025-07-15 18:57:05.755915,124,1016.8,-0.0036,-0.0144,1.1213
2025-07-15 18:57:05.855915,124,1147.9,-0.0014,-0.0141,1.1259
2025-07-15 18:57:06.261987,130,1147.9,0.0007,-0.0139,1.1254
2025-07-15 18:57:06.361987,130,1147.9,-0.0021,-0.0148,1.1259
2025-07-15 18:57:06.461987,130,1016.8,-0.0021,-0.0161,1.123
2025-07-15 18:57:06.855689,136,885.7,-0.0034,-0.0146,1.1247
2025-07-15 18:57:06.955689,136,754.6,-0.0046,-0.0114,1.1225
2025-07-15 18:57:07.055689,136,885.7,-0.0051,-0.0102,1.1259
2025-07-15 18:57:07.162023,139,1016.8,0.0,-0.0117,1.1274
2025-07-15 18:57:07.262023,139,885.7,-0.0009,-0.0168,1.1235
2025-07-15 18:57:07.362023,139,623.6,-0.0002,-0.0139,1.1284
2025-07-15 18:57:07.456562,142,623.6,-0.0048,-0.0141,1.125
2025-07-15 18:57:07.556562,142,754.6,-0.0024,-0.0148,1.121
2025-07-15 18:57:07.656562,142,1016.8,-0.0029,-0.0158,1.1267
2025-07-15 18:57:07.472721,143,754.6,-0.0024,-0.0148,1.121
2025-07-15 18:57:07.572721,143,1016.8,-0.0029,-0.0158,1.1267
2025-07-15 18:57:07.672721,143,885.7,-0.0029,-0.0144,1.122
2025-07-15 18:57:07.757961,145,885.7,-0.0029,-0.0144,1.122
2025-07-15 18:57:07.857961,145,885.7,-0.0024,-0.0112,1.1289
2025-07-15 18:57:07.957961,145,1016.8,-0.0034,-0.0148,1.122
2025-07-15 18:57:08.354975,148,1016.8,-0.0017,-0.0126,1.1252
2025-07-15 18:57:08.454975,148,1147.9,-0.0034,-0.0144,1.1245
2025-07-15 18:57:08.554975,148,1147.9,-0.0041,-0.0129,1.1232
2025-07-15 18:57:08.355602,151,885.7,-0.0031,-0.0144,1.1215
2025-07-15 18:57:08.455602,151,885.7,-0.0031,-0.0131,1.1289
2025-07-15 18:57:08.555602,151,1016.8,-0.0034,-0.0122,1.1247
2025-07-15 18:57:08.649401,154,1147.9,-0.0048,-0.0146,1.1247
2025-07-15 18:57:08.749401,154,1147.9,-0.0031,-0.0148,1.1242
2025-07-15 18:57:08.849401,154,1016.8,-0.0043,-0.0122,1.121
2025-07-15 18:57:08.669833,155,1147.9,-0.0031,-0.0148,1.1242
2025-07-15 18:57:08.769833,155,1016.8,-0.0043,-0.0122,1.121
2025-07-15 18:57:08.869833,155,623.6,-0.0024,-0.0134,1.1206
2025-07-15 18:57:08.955068,157,623.6,-0.0024,-0.0134,1.1206
2025-07-15 18:57:09.055068,157,623.6,-0.0014,-0.0134,1.1271
2025-07-15 18:57:09.155068,157,754.6,0.0021,-0.0173,1.1223
2025-07-15 18:57:09.273103,161,1016.8,-0.0007,-0.0134,1.1254
2025-07-15 18:57:09.373103,161,885.7,-0.0065,-0.0134,1.1208
2025-07-15 18:57:09.473103,161,623.6,-0.0026,-0.017,1.1164
2025-07-15 18:57:09.853090,163,623.6,-0.0026,-0.017,1.1164
2025-07-15 18:57:09.953090,163,492.5,-0.0092,-0.0131,1.1279
2025-07-15 18:57:10.053090,163,754.6,-0.0046,-0.0104,1.1245
2025-07-15 18:57:09.853489,166,754.6,-0.0039,-0.0141,1.1279
2025-07-15 18:57:09.953489,166,1016.8,-0.0034,-0.0131,1.122
2025-07-15 18:57:10.053489,166,1147.9,0.0017,-0.0153,1.125
2025-07-15 18:57:10.154557,167,1016.8,-0.0034,-0.0131,1.122
2025-07-15 18:57:10.254557,167,1147.9,0.0017,-0.0153,1.125
2025-07-15 18:57:10.354557,167,1016.8,-0.0039,-0.0173,1.1242
2025-07-15 18:57:10.155221,169,1016.8,-0.0039,-0.0173,1.1242
2025-07-15 18:57:10.255221,169,885.7,-0.0024,-0.0166,1.1245
2025-07-15 18:57:10.355221,169,754.6,-0.0009,-0.0131,1.1247
2025-07-15 18:57:10.452541,172,885.7,-0.0046,-0.0144,1.1237
2025-07-15 18:57:10.552541,172,1016.8,-0.0039,-0.02,1.1201
2025-07-15 18:57:10.652541,172,1147.9,0.0017,-0.0151,1.1337
2025-07-15 18:57:10.470766,173,1016.8,-0.0039,-0.02,1.1201
2025-07-15 18:57:10.570766,173,1147.9,0.0017,-0.0151,1.1337
2025-07-15 18:57:10.670766,173,1147.9,0.0036,-0.0083,1.124
2025-07-15 18:57:10.755971,175,1147.9,0.0036,-0.0083,1.124
2025-07-15 18:57:10.855971,175,1016.8,-0.0007,-0.0122,1.1284
2025-07-15 18:57:10.955971,175,1016.8,0.0065,-0.0129,1.1223
2025-07-15 18:57:11.054574,178,492.5,0.0056,-0.0158,1.1301
2025-07-15 18:57:11.154574,178,492.5,0.0024,-0.0141,1.1276
2025-07-15 18:57:11.254574,178,885.7,0.0017,-0.018,1.1279
2025-07-15 18:57:11.362767,181,1016.8,-0.0024,-0.0153,1.1184
2025-07-15 18:57:11.462767,181,754.6,-0.0063,-0.0112,1.1169
2025-07-15 18:57:11.562767,181,623.6,-0.0039,-0.0131,1.1206
2025-07-15 18:57:11.370160,182,754.6,-0.0063,-0.0112,1.1169
2025-07-15 18:57:11.470160,182,623.6,-0.0039,-0.0131,1.1206
2025-07-15 18:57:11.570160,182,754.6,-0.0046,-0.0119,1.1267
2025-07-15 18:57:11.652996,184,754.6,-0.0046,-0.0119,1.1267
2025-07-15 18:57:11.752996,184,754.6,0.0231,-0.0065,1.0825
2025-07-15 18:57:11.852996,184,623.6,-0.0021,-0.0195,1.1213
2025-07-15 18:57:11.671368,185,754.6,0.0231,-0.0065,1.0825
2025-07-15 18:57:11.771368,185,623.6,-0.0021,-0.0195,1.1213
2025-07-15 18:57:11.871368,185,754.6,-0.0002,-0.0122,1.1262
2025-07-15 18:57:11.973156,188,754.6,0.0046,-0.0122,1.1875
2025-07-15 18:57:12.073156,188,754.6,-0.0029,-0.0083,1.1306
2025-07-15 18:57:12.173156,188,754.6,-0.039,-0.0185,1.1975
2025-07-15 18:57:12.253911,190,754.6,-0.039,-0.0185,1.1975
2025-07-15 18:57:12.353911,190,754.6,0.0039,0.007,1.0949
2025-07-15 18:57:12.453911,190,1016.8,-0.0039,-0.0334,1.1911
2025-07-15 18:57:12.561472,193,1016.8,-0.0043,-0.0131,1.1291
2025-07-15 18:57:12.661472,193,885.7,-0.0009,-0.0153,1.1271
2025-07-15 18:57:12.761472,193,1016.8,-0.0017,-0.0144,1.132
2025-07-15 18:57:12.856099,196,1147.9,-0.0017,-0.0146,1.1254
2025-07-15 18:57:12.956099,196,1016.8,-0.0017,-0.0161,1.1301
2025-07-15 18:57:13.056099,196,1016.8,-0.0065,-0.0129,1.1254
2025-07-15 18:57:13.150636,199,1016.8,-0.0046,-0.0117,1.1235
2025-07-15 18:57:13.250636,199,1147.9,-0.0026,-0.0136,1.1237
2025-07-15 18:57:13.350636,199,1147.9,-0.0012,-0.0107,1.1242
2025-07-15 18:57:13.369964,202,885.7,0.0009,-0.0144,1.1274
2025-07-15 18:57:13.469964,202,885.7,-0.0021,-0.0122,1.1223
2025-07-15 18:57:13.569964,202,1016.8,0.0031,-0.0136,1.1215
2025-07-15 18:57:13.472083,203,885.7,-0.0021,-0.0122,1.1223
2025-07-15 18:57:13.572083,203,1016.8,0.0031,-0.0136,1.1215
2025-07-15 18:57:13.672083,203,1016.8,-0.0009,-0.0139,1.1235
2025-07-15 18:57:13.756698,205,1016.8,-0.0009,-0.0139,1.1235
2025-07-15 18:57:13.856698,205,1016.8,0.0002,-0.0144,1.1306
2025-07-15 18:57:13.956698,205,1016.8,-0.0041,-0.0122,1.1208
2025-07-15 18:57:13.774476,206,1016.8,0.0002,-0.0144,1.1306
2025-07-15 18:57:13.874476,206,1016.8,-0.0041,-0.0122,1.1208
2025-07-15 18:57:13.974476,206,1147.9,-0.0029,-0.0129,1.1213
2025-07-15 18:57:14.053515,208,1147.9,-0.0029,-0.0129,1.1213
2025-07-15 18:57:14.153515,208,754.6,-0.0043,-0.0178,1.125
2025-07-15 18:57:14.253515,208,754.6,-0.0039,-0.0153,1.1208
2025-07-15 18:57:14.070427,209,754.6,-0.0043,-0.0178,1.125
2025-07-15 18:57:14.170427,209,754.6,-0.0039,-0.0153,1.1208
2025-07-15 18:57:14.270427,209,1016.8,-0.0019,-0.0163,1.121
2025-07-15 18:57:14.358505,211,1016.8,-0.0019,-0.0163,1.121
2025-07-15 18:57:14.458505,211,885.7,-0.0034,-0.0141,1.1286
2025-07-15 18:57:14.558505,211,754.6,0.0,-0.0097,1.1184
2025-07-15 18:57:14.970494,218,754.6,0.0036,-0.0207,1.134
2025-07-15 18:57:15.070494,218,754.6,-0.0639,-0.1535,1.2011
2025-07-15 18:57:15.170494,218,754.6,0.0285,-0.1149,1.3752
2025-07-15 18:57:15.272826,221,885.7,0.3559,-0.1506,0.9809
2025-07-15 18:57:15.372826,221,1016.8,0.3325,-0.2631,1.0703
2025-07-15 18:57:15.472826,221,885.7,0.3608,0.1052,0.9858
2025-07-15 18:57:15.557930,223,885.7,0.3608,0.1052,0.9858
2025-07-15 18:57:15.657930,223,754.6,0.1435,0.1357,1.0087
2025-07-15 18:57:15.757930,223,885.7,0.3535,0.0537,0.9638
2025-07-15 18:57:15.573992,224,754.6,0.1435,0.1357,1.0087
2025-07-15 18:57:15.673992,224,885.7,0.3535,0.0537,0.9638
2025-07-15 18:57:15.773992,224,623.6,0.5563,-0.0168,0.8601
2025-07-15 18:57:15.870610,227,492.5,0.5595,-0.0783,1.0815
2025-07-15 18:57:15.970610,227,623.6,0.2165,-0.2021,1.0642
2025-07-15 18:57:16.070610,227,885.7,0.196,-0.1879,1.1513
2025-07-15 18:57:16.149848,229,885.7,0.196,-0.1879,1.1513
2025-07-15 18:57:16.249848,229,492.5,-0.194,-0.2182,1.2873
2025-07-15 18:57:16.349848,229,492.5,-0.0532,-0.0212,1.104
2025-07-15 18:57:16.171751,230,492.5,-0.194,-0.2182,1.2873
2025-07-15 18:57:16.271751,230,492.5,-0.0532,-0.0212,1.104
2025-07-15 18:57:16.371751,230,623.6,-0.0881,-0.2175,0.2285
2025-07-15 18:57:16.459910,232,623.6,-0.0881,-0.2175,0.2285
2025-07-15 18:57:16.559910,232,885.7,-0.0341,-0.1145,1.1206
2025-07-15 18:57:16.659910,232,623.6,-0.0373,-0.0424,1.093
2025-07-15 18:57:16.758588,235,623.6,-0.0212,-0.0075,1.124
2025-07-15 18:57:16.858588,235,623.6,-0.0207,-0.0207,1.1218
2025-07-15 18:57:16.958588,235,754.6,-0.0129,-0.0051,1.1181
2025-07-15 18:57:16.770446,236,623.6,-0.0207,-0.0207,1.1218
2025-07-15 18:57:16.870446,236,754.6,-0.0129,-0.0051,1.1181
2025-07-15 18:57:16.970446,236,1016.8,-0.0241,-0.008,1.1235
2025-07-15 18:57:17.056620,238,1016.8,-0.0241,-0.008,1.1235
2025-07-15 18:57:17.156620,238,885.7,-0.0195,-0.0068,1.1215
2025-07-15 18:57:17.256620,238,885.7,-0.0244,-0.008,1.1242
2025-07-15 18:57:17.373198,242,885.7,-0.0217,-0.01,1.1281
2025-07-15 18:57:17.473198,242,754.6,-0.0205,-0.0073,1.124
2025-07-15 18:57:17.573198,242,754.6,-0.0625,-0.0305,1.1535
2025-07-15 18:57:17.656529,244,754.6,-0.0625,-0.0305,1.1535
2025-07-15 18:57:17.756529,244,885.7,-0.0251,-0.0068,1.1186
2025-07-15 18:57:17.856529,244,885.7,-0.0383,-0.019,1.1228
2025-07-15 18:57:17.971929,248,623.6,0.0034,0.0012,1.1137
2025-07-15 18:57:18.071929,248,492.5,-0.0183,-0.0085,1.1208
2025-07-15 18:57:18.171929,248,754.6,-0.0153,-0.0095,1.1235
2025-07-15 18:57:18.257554,250,754.6,-0.0153,-0.0095,1.1235
2025-07-15 18:57:18.357554,250,1016.8,-0.0187,-0.0114,1.1323
2025-07-15 18:57:18.457554,250,754.6,-0.0192,-0.0107,1.1186
2025-07-15 18:57:18.871926,1,885.7,-0.0239,-0.0156,1.1196
2025-07-15 18:57:18.971926,1,623.6,-0.039,-0.0336,1.1203
2025-07-15 18:57:19.071926,1,623.6,-0.0341,-0.01,1.132
2025-07-15 18:57:19.454612,4,885.7,-0.0092,-0.0126,1.1101
2025-07-15 18:57:19.554612,4,885.7,-0.0405,-0.0087,1.1198
2025-07-15 18:57:19.654612,4,1016.8,-0.0107,0.0251,1.1259
2025-07-15 18:57:19.455354,6,1016.8,-0.0107,0.0251,1.1259
2025-07-15 18:57:19.555354,6,1147.9,-0.0319,-0.0046,1.123
2025-07-15 18:57:19.655354,6,1147.9,-0.0292,0.0021,1.1208
2025-07-15 18:57:19.763481,9,1147.9,-0.0224,-0.0339,1.1215
2025-07-15 18:57:19.863481,9,885.7,-0.0344,-0.0175,1.1264
2025-07-15 18:57:19.963481,9,492.5,-0.0241,-0.0251,1.1237
2025-07-15 18:57:20.062104,12,361.4,-0.0241,-0.0258,1.1186
2025-07-15 18:57:20.162104,12,623.6,-0.0256,-0.0249,1.1235
2025-07-15 18:57:20.262104,12,885.7,-0.0266,-0.0195,1.1206
2025-07-15 18:57:20.340494,13,623.6,-0.0256,-0.0249,1.1235
2025-07-15 18:57:20.440494,13,885.7,-0.0266,-0.0195,1.1206
2025-07-15 18:57:20.540494,13,1016.8,-0.0273,-0.0234,1.1186
2025-07-15 18:57:20.352341,15,1016.8,-0.0273,-0.0234,1.1186
2025-07-15 18:57:20.452341,15,1147.9,-0.028,-0.0148,1.1127
2025-07-15 18:57:20.552341,15,1016.8,-0.029,-0.0158,1.1208
2025-07-15 18:57:20.369883,16,1147.9,-0.028,-0.0148,1.1127
2025-07-15 18:57:20.469883,16,1016.8,-0.029,-0.0158,1.1208
2025-07-15 18:57:20.569883,16,754.6,-0.0197,-0.0122,1.1203
2025-07-15 18:57:20.658340,18,754.6,-0.0197,-0.0122,1.1203
2025-07-15 18:57:20.758340,18,885.7,-0.0183,-0.0117,1.121
2025-07-15 18:57:20.858340,18,1016.8,-0.0183,-0.0114,1.1223
2025-07-15 18:57:20.955525,21,1016.8,-0.0209,-0.0153,1.1225
2025-07-15 18:57:21.055525,21,885.7,-0.0163,-0.0183,1.1242
2025-07-15 18:57:21.155525,21,885.7,-0.0202,-0.0126,1.1203
2025-07-15 18:57:20.974012,22,885.7,-0.0163,-0.0183,1.1242
2025-07-15 18:57:21.074012,22,885.7,-0.0202,-0.0126,1.1203
2025-07-15 18:57:21.174012,22,1016.8,-0.0241,-0.0109,1.1279
2025-07-15 18:57:21.553667,27,1016.8,-0.0227,-0.01,1.1193
2025-07-15 18:57:21.653667,27,1278.9,-0.0229,-0.0158,1.1289
2025-07-15 18:57:21.753667,27,885.7,-0.0166,-0.0134,1.1247
2025-07-15 18:57:21.856978,30,754.6,-0.0192,-0.0144,1.123
2025-07-15 18:57:21.956978,30,754.6,-0.0173,-0.018,1.1257
2025-07-15 18:57:22.056978,30,623.6,-0.0168,-0.0112,1.123
2025-07-15 18:57:22.438363,31,754.6,-0.0173,-0.018,1.1257
2025-07-15 18:57:22.538363,31,623.6,-0.0168,-0.0112,1.123
2025-07-15 18:57:22.638363,31,754.6,-0.0168,-0.0136,1.1164
2025-07-15 18:57:22.761063,39,885.7,-0.0222,-0.0139,1.1267
2025-07-15 18:57:22.861063,39,885.7,-0.0231,-0.0156,1.1232
2025-07-15 18:57:22.961063,39,885.7,-0.0173,-0.0153,1.1254
2025-07-15 18:57:23.051692,42,1016.8,-0.0146,-0.0148,1.1228
2025-07-15 18:57:23.151692,42,1016.8,-0.0185,-0.0139,1.1235
2025-07-15 18:57:23.251692,42,885.7,-0.0234,-0.0124,1.1293
2025-07-15 18:57:23.656002,48,623.6,-0.0163,-0.0153,1.1186
2025-07-15 18:57:23.756002,48,754.6,-0.0195,-0.0146,1.1254
2025-07-15 18:57:23.856002,48,754.6,-0.0222,-0.0144,1.1276
2025-07-15 18:57:23.962797,51,754.6,-0.0229,-0.0144,1.1201
2025-07-15 18:57:24.062797,51,885.7,-0.0207,-0.0126,1.1213
2025-07-15 18:57:24.162797,51,885.7,-0.0202,-0.0122,1.1232
2025-07-15 18:57:24.257300,54,885.7,-0.02,-0.0136,1.124
2025-07-15 18:57:24.357300,54,754.6,-0.019,-0.0163,1.1267
2025-07-15 18:57:24.457300,54,754.6,-0.0244,-0.0134,1.1203
2025-07-15 18:57:24.551067,57,885.7,-0.0187,-0.0119,1.1196
2025-07-15 18:57:24.651067,57,754.6,-0.0209,-0.0129,1.1203
2025-07-15 18:57:24.751067,57,623.6,-0.0209,-0.0183,1.125
2025-07-15 18:57:25.454032,66,1016.8,-0.0246,-0.0166,1.123
2025-07-15 18:57:25.554032,66,885.7,-0.0231,-0.0156,1.1252
2025-07-15 18:57:25.654032,66,1016.8,-0.0231,-0.0178,1.1186
2025-07-15 18:57:25.752044,69,885.7,-0.0244,-0.0166,1.1215
2025-07-15 18:57:25.852044,69,754.6,-0.0197,-0.0166,1.1293
2025-07-15 18:57:25.952044,69,1016.8,-0.0273,-0.0163,1.1203
2025-07-15 18:57:25.772839,70,754.6,-0.0197,-0.0166,1.1293
2025-07-15 18:57:25.872839,70,1016.8,-0.0273,-0.0163,1.1203
2025-07-15 18:57:25.972839,70,1016.8,-0.0266,-0.018,1.1262
2025-07-15 18:57:26.054261,72,1016.8,-0.0266,-0.018,1.1262
2025-07-15 18:57:26.154261,72,754.6,-0.027,-0.0183,1.1196
2025-07-15 18:57:26.254261,72,754.6,-0.0258,-0.0166,1.1245
2025-07-15 18:57:26.655997,78,623.6,-0.0231,-0.0231,1.1242
2025-07-15 18:57:26.755997,78,623.6,-0.0258,-0.0222,1.1264
2025-07-15 18:57:26.855997,78,623.6,-0.0253,-0.019,1.1225
2025-07-15 18:57:27.411657,86,1410.0,-0.0227,-0.0158,1.1206
2025-07-15 18:57:27.511657,86,1147.9,-0.0246,-0.017,1.1174
2025-07-15 18:57:27.611657,86,885.7,-0.028,-0.0175,1.1264
2025-07-15 18:57:27.553605,87,1147.9,-0.0246,-0.017,1.1174
2025-07-15 18:57:27.653605,87,885.7,-0.028,-0.0175,1.1264
2025-07-15 18:57:27.753605,87,885.7,-0.0263,-0.0168,1.1235
2025-07-15 18:57:27.848021,88,885.7,-0.028,-0.0175,1.1264
2025-07-15 18:57:27.948021,88,885.7,-0.0263,-0.0168,1.1235
2025-07-15 18:57:28.048021,88,754.6,-0.0246,-0.0156,1.1198
2025-07-15 18:57:27.856271,90,754.6,-0.0246,-0.0156,1.1198
2025-07-15 18:57:27.956271,90,885.7,-0.0268,-0.0134,1.1225
2025-07-15 18:57:28.056271,90,1147.9,-0.0297,-0.0146,1.1228
2025-07-15 18:57:28.156586,93,1278.9,-0.0241,-0.0144,1.1274
2025-07-15 18:57:28.256586,93,885.7,-0.0251,-0.0158,1.1232
2025-07-15 18:57:28.356586,93,1016.8,-0.0273,-0.0156,1.1215
2025-07-15 18:57:28.472014,97,885.7,-0.0241,-0.0131,1.1225
2025-07-15 18:57:28.572014,97,885.7,-0.0241,-0.0161,1.1245
2025-07-15 18:57:28.672014,97,1016.8,-0.0266,-0.0136,1.1164
2025-07-15 18:57:28.773494,100,1147.9,-0.0202,-0.018,1.1176
2025-07-15 18:57:28.873494,100,885.7,-0.0273,-0.0136,1.1198
2025-07-15 18:57:28.973494,100,1147.9,-0.0236,-0.0158,1.1184
2025-07-15 18:57:29.069713,102,1147.9,-0.0236,-0.0158,1.1184
2025-07-15 18:57:29.169713,102,1016.8,-0.0236,-0.0146,1.1201
2025-07-15 18:57:29.269713,102,885.7,-0.0263,-0.0161,1.1159
2025-07-15 18:57:29.070301,103,1016.8,-0.0236,-0.0146,1.1201
2025-07-15 18:57:29.170301,103,885.7,-0.0263,-0.0161,1.1159
2025-07-15 18:57:29.270301,103,1016.8,-0.0261,-0.0146,1.122
2025-07-15 18:57:29.355872,105,1016.8,-0.0261,-0.0146,1.122
2025-07-15 18:57:29.455872,105,885.7,-0.0263,-0.0122,1.1279
2025-07-15 18:57:29.555872,105,885.7,-0.0261,-0.017,1.1193
2025-07-15 18:57:29.371497,106,885.7,-0.0263,-0.0122,1.1279
2025-07-15 18:57:29.471497,106,885.7,-0.0261,-0.017,1.1193
2025-07-15 18:57:29.571497,106,1016.8,-0.0231,-0.0122,1.1193
2025-07-15 18:57:30.235701,111,492.5,-0.0227,-0.0144,1.1232
2025-07-15 18:57:30.335701,111,885.7,-0.0229,-0.0178,1.125
2025-07-15 18:57:30.435701,111,885.7,-0.0231,-0.0146,1.1157
2025-07-15 18:57:30.559233,114,754.6,-0.0212,-0.0163,1.1225
2025-07-15 18:57:30.659233,114,885.7,-0.0234,-0.0126,1.1262
2025-07-15 18:57:30.759233,114,885.7,-0.0224,-0.0107,1.1284
2025-07-15 18:57:31.163020,120,1016.8,-0.0227,-0.0144,1.1223
2025-07-15 18:57:31.263020,120,885.7,-0.0187,-0.0175,1.1225
2025-07-15 18:57:31.363020,120,754.6,-0.0212,-0.0187,1.1171
2025-07-15 18:57:31.456436,126,1147.9,-0.0241,-0.0153,1.1306
2025-07-15 18:57:31.556436,126,885.7,-0.0246,-0.0168,1.1223
2025-07-15 18:57:31.656436,126,1016.8,-0.0222,-0.0185,1.1181
2025-07-15 18:57:31.750097,129,754.6,-0.0241,-0.0156,1.1208
2025-07-15 18:57:31.850097,129,623.6,-0.0261,-0.0134,1.124
2025-07-15 18:57:31.950097,129,623.6,-0.0229,-0.0148,1.122
2025-07-15 18:57:31.769719,130,623.6,-0.0261,-0.0134,1.124
2025-07-15 18:57:31.869719,130,623.6,-0.0229,-0.0148,1.122
2025-07-15 18:57:31.969719,130,623.6,-0.0229,-0.0163,1.1232
2025-07-15 18:57:32.071517,133,623.6,-0.0222,-0.0146,1.1223
2025-07-15 18:57:32.171517,133,754.6,-0.0214,-0.0163,1.1201
2025-07-15 18:57:32.271517,133,1016.8,-0.0285,-0.0146,1.1279
2025-07-15 18:57:32.362594,135,1016.8,-0.0285,-0.0146,1.1279
2025-07-15 18:57:32.462594,135,1016.8,-0.0209,-0.0173,1.1242
2025-07-15 18:57:32.562594,135,885.7,-0.0195,-0.0148,1.1293
2025-07-15 18:57:32.373965,136,1016.8,-0.0209,-0.0173,1.1242
2025-07-15 18:57:32.473965,136,885.7,-0.0195,-0.0148,1.1293
2025-07-15 18:57:32.573965,136,754.6,-0.02,-0.018,1.1228
2025-07-15 18:57:32.956115,141,885.7,-0.0217,-0.0136,1.121
2025-07-15 18:57:33.056115,141,1016.8,-0.0251,-0.0153,1.1232
2025-07-15 18:57:33.156115,141,754.6,-0.0217,-0.0131,1.1232
2025-07-15 18:57:33.253710,144,754.6,-0.0202,-0.0146,1.122
2025-07-15 18:57:33.353710,144,1147.9,-0.0224,-0.0144,1.1218
2025-07-15 18:57:33.453710,144,885.7,-0.0241,-0.0144,1.122
2025-07-15 18:57:33.272951,145,1147.9,-0.0224,-0.0144,1.1218
2025-07-15 18:57:33.372951,145,885.7,-0.0241,-0.0144,1.122
2025-07-15 18:57:33.472951,145,754.6,-0.0207,-0.0153,1.1262
2025-07-15 18:57:33.370078,146,885.7,-0.0241,-0.0144,1.122
2025-07-15 18:57:33.470078,146,754.6,-0.0207,-0.0153,1.1262
2025-07-15 18:57:33.570078,146,623.6,-0.0209,-0.0139,1.1276
2025-07-15 18:57:33.554207,147,754.6,-0.0207,-0.0153,1.1262
2025-07-15 18:57:33.654207,147,623.6,-0.0209,-0.0139,1.1276
2025-07-15 18:57:33.754207,147,492.5,-0.0224,-0.0158,1.1184
2025-07-15 18:57:34.156188,153,623.6,-0.0207,-0.0141,1.1259
2025-07-15 18:57:34.256188,153,623.6,-0.0229,-0.0036,1.1254
2025-07-15 18:57:34.356188,153,754.6,-0.0329,-0.0004,1.1264
2025-07-15 18:57:34.170762,154,623.6,-0.0229,-0.0036,1.1254
2025-07-15 18:57:34.270762,154,754.6,-0.0329,-0.0004,1.1264
2025-07-15 18:57:34.370762,154,754.6,-0.0048,-0.0058,1.1232
2025-07-15 18:57:34.448329,156,754.6,-0.0048,-0.0058,1.1232
2025-07-15 18:57:34.548329,156,623.6,-0.0136,-0.009,1.1235
2025-07-15 18:57:34.648329,156,623.6,-0.0161,-0.0153,1.1201
2025-07-15 18:57:34.754301,159,754.6,0.0202,-0.0388,1.114
2025-07-15 18:57:34.854301,159,754.6,0.0053,-0.0334,1.1848
2025-07-15 18:57:34.954301,159,885.7,-0.0559,-0.1101,1.061
2025-07-15 18:57:34.774224,160,754.6,0.0053,-0.0334,1.1848
2025-07-15 18:57:34.874224,160,885.7,-0.0559,-0.1101,1.061
2025-07-15 18:57:34.974224,160,623.6,-0.0002,-0.1242,1.1169
2025-07-15 18:57:35.071912,163,623.6,-0.0361,-0.0371,1.1447
2025-07-15 18:57:35.171912,163,885.7,-0.0405,-0.0888,1.1003
2025-07-15 18:57:35.271912,163,885.7,-0.0263,-0.1127,1.0961
2025-07-15 18:57:35.814926,165,885.7,-0.0263,-0.1127,1.0961
2025-07-15 18:57:35.914926,165,885.7,0.0036,-0.1596,1.0915
2025-07-15 18:57:36.014926,165,885.7,-0.0373,-0.1191,1.1164
2025-07-15 18:57:35.952661,171,885.7,-0.0153,-0.0468,1.0861
2025-07-15 18:57:36.052661,171,885.7,-0.0495,-0.0502,1.1049
2025-07-15 18:57:36.152661,171,885.7,-0.0109,-0.0231,1.1232
2025-07-15 18:57:36.252571,174,885.7,0.0024,0.0256,1.0336
2025-07-15 18:57:36.352571,174,1147.9,-0.0122,-0.0112,1.1201
2025-07-15 18:57:36.452571,174,1147.9,-0.0144,-0.0122,1.121
2025-07-15 18:57:36.271175,175,1147.9,-0.0122,-0.0112,1.1201
2025-07-15 18:57:36.371175,175,1147.9,-0.0144,-0.0122,1.121
2025-07-15 18:57:36.471175,175,885.7,-0.0107,-0.0117,1.1247
2025-07-15 18:57:36.871211,181,885.7,-0.0146,-0.0141,1.1198
2025-07-15 18:57:36.971211,181,754.6,-0.0104,-0.0136,1.1196
2025-07-15 18:57:37.071211,181,754.6,-0.0134,-0.01,1.1252
2025-07-15 18:57:37.160306,183,754.6,-0.0134,-0.01,1.1252
2025-07-15 18:57:37.260306,183,754.6,-0.0109,-0.0134,1.1191
2025-07-15 18:57:37.360306,183,1016.8,-0.0141,-0.0153,1.1184
2025-07-15 18:57:37.172334,184,754.6,-0.0109,-0.0134,1.1191
2025-07-15 18:57:37.272334,184,1016.8,-0.0141,-0.0153,1.1184
2025-07-15 18:57:37.372334,184,1278.9,-0.0158,-0.0134,1.1193
2025-07-15 18:57:37.471181,187,1147.9,-0.0131,-0.0151,1.1264
2025-07-15 18:57:37.571181,187,885.7,-0.0148,-0.0144,1.1186
2025-07-15 18:57:37.671181,187,885.7,-0.0102,-0.0131,1.1206
2025-07-15 18:57:37.756686,189,885.7,-0.0102,-0.0131,1.1206
2025-07-15 18:57:37.856686,189,1016.8,-0.0104,-0.0119,1.125
2025-07-15 18:57:37.956686,189,1016.8,-0.0124,-0.0104,1.1215
2025-07-15 18:57:37.773161,190,1016.8,-0.0104,-0.0119,1.125
2025-07-15 18:57:37.873161,190,1016.8,-0.0124,-0.0104,1.1215
2025-07-15 18:57:37.973161,190,885.7,-0.0124,-0.0136,1.1196
2025-07-15 18:57:38.359376,195,754.6,-0.0119,-0.0068,1.1176
2025-07-15 18:57:38.459376,195,885.7,-0.0134,-0.0097,1.1245
2025-07-15 18:57:38.559376,195,492.5,-0.0119,-0.0134,1.1257
2025-07-15 18:57:38.371186,196,885.7,-0.0134,-0.0097,1.1245
2025-07-15 18:57:38.471186,196,492.5,-0.0119,-0.0134,1.1257
2025-07-15 18:57:38.571186,196,361.4,-0.0151,-0.01,1.124
2025-07-15 18:57:38.659526,198,361.4,-0.0151,-0.01,1.124
2025-07-15 18:57:38.759526,198,492.5,-0.0097,-0.0134,1.121
2025-07-15 18:57:38.859526,198,623.6,-0.0122,-0.0146,1.1259
2025-07-15 18:57:38.672853,199,492.5,-0.0097,-0.0134,1.121
2025-07-15 18:57:38.772853,199,623.6,-0.0122,-0.0146,1.1259
2025-07-15 18:57:38.872853,199,885.7,-0.0166,-0.0095,1.125
2025-07-15 18:57:39.254804,202,885.7,-0.0139,-0.0117,1.1225
2025-07-15 18:57:39.354804,202,623.6,-0.0134,-0.0109,1.1291
2025-07-15 18:57:39.454804,202,754.6,-0.0114,-0.01,1.1318
2025-07-15 18:57:39.255622,204,754.6,-0.0114,-0.01,1.1318
2025-07-15 18:57:39.355622,204,754.6,-0.0107,-0.0134,1.1201
2025-07-15 18:57:39.455622,204,754.6,-0.0109,-0.0126,1.1313
2025-07-15 18:57:39.573114,208,1016.8,-0.0078,-0.0144,1.1218
2025-07-15 18:57:39.673114,208,885.7,-0.0087,-0.0136,1.1232
2025-07-15 18:57:39.773114,208,623.6,-0.0131,-0.0109,1.1232
2025-07-15 18:57:39.862819,210,623.6,-0.0131,-0.0109,1.1232
2025-07-15 18:57:39.962819,210,754.6,-0.0136,-0.0117,1.1201
2025-07-15 18:57:40.062819,210,885.7,-0.0107,-0.0153,1.1225
2025-07-15 18:57:39.871852,211,754.6,-0.0136,-0.0117,1.1201
2025-07-15 18:57:39.971852,211,885.7,-0.0107,-0.0153,1.1225
2025-07-15 18:57:40.071852,211,1016.8,-0.0163,-0.0122,1.1225
2025-07-15 18:57:40.171701,214,623.6,-0.0102,-0.0156,1.1225
2025-07-15 18:57:40.271701,214,492.5,-0.0117,-0.0114,1.121
2025-07-15 18:57:40.371701,214,885.7,-0.0124,-0.0134,1.1325
2025-07-15 18:57:40.473043,217,1016.8,-0.0112,-0.0156,1.1196
2025-07-15 18:57:40.573043,217,885.7,-0.0087,-0.0168,1.1228
2025-07-15 18:57:40.673043,217,885.7,-0.0136,-0.0075,1.1181
2025-07-15 18:57:40.751125,219,885.7,-0.0136,-0.0075,1.1181
2025-07-15 18:57:40.851125,219,885.7,-0.0102,-0.0117,1.121
2025-07-15 18:57:40.951125,219,754.6,-0.0131,-0.0112,1.1206
2025-07-15 18:57:40.770134,220,885.7,-0.0102,-0.0117,1.121
2025-07-15 18:57:40.870134,220,754.6,-0.0131,-0.0112,1.1206
2025-07-15 18:57:40.970134,220,623.6,-0.017,-0.0144,1.1286
2025-07-15 18:57:41.063268,222,623.6,-0.017,-0.0144,1.1286
2025-07-15 18:57:41.163268,222,754.6,-0.0102,-0.0109,1.1245
2025-07-15 18:57:41.263268,222,1016.8,-0.0144,-0.0087,1.1367
2025-07-15 18:57:41.359733,225,885.7,-0.0097,-0.0107,1.1264
2025-07-15 18:57:41.459733,225,885.7,-0.009,-0.0151,1.1257
2025-07-15 18:57:41.559733,225,1016.8,-0.01,-0.0095,1.1276
2025-07-15 18:57:41.655019,228,1016.8,-0.0112,-0.0131,1.1315
2025-07-15 18:57:41.755019,228,1016.8,-0.0136,-0.0124,1.1296
2025-07-15 18:57:41.855019,228,885.7,-0.0112,-0.0097,1.1296
2025-07-15 18:57:41.669830,229,1016.8,-0.0136,-0.0124,1.1296
2025-07-15 18:57:41.769830,229,885.7,-0.0112,-0.0097,1.1296
2025-07-15 18:57:41.869830,229,754.6,-0.0144,-0.0119,1.1169
2025-07-15 18:57:41.810957,230,885.7,-0.0112,-0.0097,1.1296
2025-07-15 18:57:41.910957,230,754.6,-0.0144,-0.0119,1.1169
2025-07-15 18:57:42.010957,230,623.6,-0.0148,-0.0122,1.1267
2025-07-15 18:57:41.948917,231,754.6,-0.0144,-0.0119,1.1169
2025-07-15 18:57:42.048917,231,623.6,-0.0148,-0.0122,1.1267
2025-07-15 18:57:42.148917,231,623.6,-0.0073,-0.0095,1.1164
2025-07-15 18:57:42.258622,234,885.7,-0.0107,-0.0117,1.1274
2025-07-15 18:57:42.358622,234,885.7,-0.0175,-0.0144,1.1188
2025-07-15 18:57:42.458622,234,1016.8,-0.0102,-0.0134,1.124
2025-07-15 18:57:42.556907,237,1016.8,-0.0124,-0.0129,1.1245
2025-07-15 18:57:42.656907,237,885.7,-0.0109,-0.0087,1.1206
2025-07-15 18:57:42.756907,237,885.7,-0.0065,-0.0139,1.1166
2025-07-15 18:57:42.570854,238,885.7,-0.0109,-0.0087,1.1206
2025-07-15 18:57:42.670854,238,885.7,-0.0065,-0.0139,1.1166
2025-07-15 18:57:42.770854,238,1278.9,-0.0139,-0.0117,1.1188
2025-07-15 18:57:42.860494,240,1278.9,-0.0139,-0.0117,1.1188
2025-07-15 18:57:42.960494,240,1147.9,-0.0097,-0.0117,1.1196
2025-07-15 18:57:43.060494,240,754.6,-0.0114,-0.0107,1.1198
2025-07-15 18:57:43.156600,243,754.6,-0.0126,-0.0112,1.1267
2025-07-15 18:57:43.256600,243,754.6,-0.0146,-0.0092,1.1296
2025-07-15 18:57:43.356600,243,623.6,-0.0146,-0.0109,1.1252
2025-07-15 18:57:43.370044,246,885.7,-0.0161,-0.0114,1.1259
2025-07-15 18:57:43.470044,246,885.7,-0.0102,-0.0129,1.1223
2025-07-15 18:57:43.570044,246,1016.8,-0.0136,-0.0104,1.125
2025-07-15 18:57:43.755765,249,1016.8,-0.0112,-0.0107,1.1284
2025-07-15 18:57:43.855765,249,885.7,-0.0109,-0.0148,1.1279
2025-07-15 18:57:43.955765,249,492.5,-0.009,-0.0122,1.1225
2025-07-15 18:57:44.049755,252,492.5,-0.0117,-0.0144,1.125
2025-07-15 18:57:44.149755,252,754.6,-0.0122,-0.0136,1.1262
2025-07-15 18:57:44.249755,252,885.7,-0.0131,-0.0102,1.1242
2025-07-15 18:57:44.070815,253,754.6,-0.0122,-0.0136,1.1262
2025-07-15 18:57:44.170815,253,885.7,-0.0131,-0.0102,1.1242
2025-07-15 18:57:44.270815,253,885.7,-0.0144,-0.0104,1.1215
2025-07-15 18:57:44.653589,2,754.6,-0.0122,-0.0117,1.1191
2025-07-15 18:57:44.753589,2,1147.9,-0.0148,-0.01,1.1323
2025-07-15 18:57:44.853589,2,754.6,-0.0134,-0.0104,1.1269
2025-07-15 18:57:44.985727,5,754.6,-0.0124,-0.0114,1.1267
2025-07-15 18:57:45.085727,5,885.7,-0.0148,-0.0104,1.123
2025-07-15 18:57:45.185727,5,885.7,-0.0136,-0.0134,1.1196
2025-07-15 18:57:45.271366,9,885.7,-0.0092,-0.0126,1.1262
2025-07-15 18:57:45.371366,9,754.6,-0.0139,-0.0124,1.1162
2025-07-15 18:57:45.471366,9,623.6,-0.0122,-0.0122,1.1245
2025-07-15 18:57:45.555660,11,623.6,-0.0122,-0.0122,1.1245
2025-07-15 18:57:45.655660,11,623.6,-0.0109,-0.0095,1.1228
2025-07-15 18:57:45.755660,11,623.6,-0.0153,-0.0131,1.1301
2025-07-15 18:57:45.870131,15,885.7,-0.0117,-0.0087,1.1281
2025-07-15 18:57:45.970131,15,885.7,-0.0134,-0.0139,1.121
2025-07-15 18:57:46.070131,15,754.6,-0.0114,-0.0134,1.1301
2025-07-15 18:57:46.171673,18,754.6,-0.0087,-0.0117,1.1254
2025-07-15 18:57:46.271673,18,754.6,-0.0131,-0.0124,1.1162
2025-07-15 18:57:46.371673,18,623.6,-0.0097,-0.0104,1.1208
2025-07-15 18:57:46.454370,20,623.6,-0.0097,-0.0104,1.1208
2025-07-15 18:57:46.554370,20,623.6,-0.0107,-0.0119,1.1215
2025-07-15 18:57:46.654370,20,885.7,-0.0102,-0.0102,1.1225
2025-07-15 18:57:47.052305,26,1016.8,-0.0095,-0.0163,1.122
2025-07-15 18:57:47.152305,26,885.7,-0.0109,-0.0122,1.1176
2025-07-15 18:57:47.252305,26,754.6,-0.0097,-0.0144,1.1271
2025-07-15 18:57:47.362767,29,754.6,-0.0136,-0.0126,1.1191
2025-07-15 18:57:47.462767,29,754.6,-0.0131,-0.0095,1.1232
2025-07-15 18:57:47.562767,29,885.7,-0.0163,-0.0083,1.1308
2025-07-15 18:57:47.414320,30,754.6,-0.0131,-0.0095,1.1232
2025-07-15 18:57:47.514320,30,885.7,-0.0163,-0.0083,1.1308
2025-07-15 18:57:47.614320,30,885.7,-0.0126,-0.0134,1.1269
2025-07-15 18:57:47.671865,33,885.7,-0.0107,-0.0119,1.1225
2025-07-15 18:57:47.771865,33,754.6,-0.0117,-0.0109,1.121
2025-07-15 18:57:47.871865,33,885.7,-0.0083,-0.0102,1.1254
2025-07-15 18:57:47.951931,35,885.7,-0.0083,-0.0102,1.1254
2025-07-15 18:57:48.051931,35,885.7,-0.0134,-0.0117,1.1188
2025-07-15 18:57:48.151931,35,754.6,-0.007,-0.01,1.1269
2025-07-15 18:57:48.270303,39,1016.8,-0.0122,-0.009,1.1298
2025-07-15 18:57:48.370303,39,885.7,-0.0117,-0.0097,1.122
2025-07-15 18:57:48.470303,39,1147.9,-0.0131,-0.0117,1.1274
2025-07-15 18:57:48.572060,42,1016.8,-0.0122,-0.0124,1.1274
2025-07-15 18:57:48.672060,42,754.6,-0.0124,-0.0122,1.1237
2025-07-15 18:57:48.772060,42,754.6,-0.0129,-0.0095,1.1235
2025-07-15 18:57:48.849122,44,754.6,-0.0129,-0.0095,1.1235
2025-07-15 18:57:48.949122,44,885.7,-0.0087,-0.0114,1.1303
2025-07-15 18:57:49.049122,44,1147.9,-0.0166,-0.0068,1.1154
2025-07-15 18:57:48.873588,45,885.7,-0.0087,-0.0114,1.1303
2025-07-15 18:57:48.973588,45,1147.9,-0.0166,-0.0068,1.1154
2025-07-15 18:57:49.073588,45,1016.8,-0.0114,-0.0124,1.1286
2025-07-15 18:57:49.170216,48,754.6,-0.0124,-0.0122,1.1279
2025-07-15 18:57:49.270216,48,1016.8,-0.0131,-0.0144,1.124
2025-07-15 18:57:49.370216,48,1016.8,-0.0117,-0.0131,1.125
2025-07-15 18:57:49.457792,50,1016.8,-0.0117,-0.0131,1.125
2025-07-15 18:57:49.557792,50,1147.9,-0.0109,-0.0131,1.124
2025-07-15 18:57:49.657792,50,1016.8,-0.0104,-0.0107,1.1223
2025-07-15 18:57:49.472198,51,1147.9,-0.0109,-0.0131,1.124
2025-07-15 18:57:49.572198,51,1016.8,-0.0104,-0.0107,1.1223
2025-07-15 18:57:49.672198,51,885.7,-0.0097,-0.0122,1.1254
2025-07-15 18:57:49.756281,53,885.7,-0.0097,-0.0122,1.1254
2025-07-15 18:57:49.856281,53,623.6,-0.0112,-0.0102,1.1215
2025-07-15 18:57:49.956281,53,623.6,-0.0161,-0.0109,1.124
2025-07-15 18:57:50.057955,56,885.7,-0.0161,-0.0124,1.1186
2025-07-15 18:57:50.157955,56,1016.8,-0.0139,-0.0146,1.1242
2025-07-15 18:57:50.257955,56,492.5,-0.0122,-0.0078,1.1193
2025-07-15 18:57:50.354208,59,623.6,-0.0139,-0.0129,1.1245
2025-07-15 18:57:50.454208,59,1016.8,-0.0104,-0.0134,1.1215
2025-07-15 18:57:50.554208,59,1016.8,-0.0144,-0.0148,1.1252
2025-07-15 18:57:50.372278,60,1016.8,-0.0104,-0.0134,1.1215
2025-07-15 18:57:50.472278,60,1016.8,-0.0144,-0.0148,1.1252
2025-07-15 18:57:50.572278,60,1016.8,-0.0134,-0.0085,1.1252
2025-07-15 18:57:51.251240,68,623.6,-0.0102,-0.0075,1.1303
2025-07-15 18:57:51.351240,68,754.6,-0.0173,-0.0102,1.1259
2025-07-15 18:57:51.451240,68,1147.9,-0.0102,-0.0124,1.1259
2025-07-15 18:57:51.271878,69,754.6,-0.0173,-0.0102,1.1259
2025-07-15 18:57:51.371878,69,1147.9,-0.0102,-0.0124,1.1259
2025-07-15 18:57:51.471878,69,1016.8,-0.0124,-0.0104,1.1276
2025-07-15 18:57:51.572559,72,1016.8,-0.0158,-0.0136,1.1247
2025-07-15 18:57:51.672559,72,1016.8,-0.0109,-0.0087,1.1259
2025-07-15 18:57:51.772559,72,1016.8,-0.0151,-0.0122,1.1271
2025-07-15 18:57:51.853194,74,1016.8,-0.0151,-0.0122,1.1271
2025-07-15 18:57:51.953194,74,1147.9,-0.0136,-0.008,1.1308
2025-07-15 18:57:52.053194,74,1016.8,-0.0124,-0.0097,1.1276
2025-07-15 18:57:51.869925,75,1147.9,-0.0136,-0.008,1.1308
2025-07-15 18:57:51.969925,75,1016.8,-0.0124,-0.0097,1.1276
2025-07-15 18:57:52.069925,75,1016.8,-0.0112,-0.0141,1.124
2025-07-15 18:57:52.151320,77,1016.8,-0.0112,-0.0141,1.124
2025-07-15 18:57:52.251320,77,1147.9,-0.0058,0.0112,1.1542
2025-07-15 18:57:52.351320,77,1016.8,-0.0126,-0.0312,1.1472
2025-07-15 18:57:52.171412,78,1147.9,-0.0058,0.0112,1.1542
2025-07-15 18:57:52.271412,78,1016.8,-0.0126,-0.0312,1.1472
2025-07-15 18:57:52.371412,78,885.7,-0.0097,-0.0151,1.1425
2025-07-15 18:57:52.457077,80,885.7,-0.0097,-0.0151,1.1425
2025-07-15 18:57:52.557077,80,885.7,-0.0141,-0.0097,1.1311
2025-07-15 18:57:52.657077,80,885.7,-0.0351,0.0104,1.1479
2025-07-15 18:57:52.472777,81,885.7,-0.0141,-0.0097,1.1311
2025-07-15 18:57:52.572777,81,885.7,-0.0351,0.0104,1.1479
2025-07-15 18:57:52.672777,81,1016.8,-0.0087,-0.0161,1.1308
2025-07-15 18:57:52.753657,83,1016.8,-0.0087,-0.0161,1.1308
2025-07-15 18:57:52.853657,83,754.6,-0.0107,-0.0087,1.1237
2025-07-15 18:57:52.953657,83,885.7,-0.0104,-0.0151,1.1188
2025-07-15 18:57:53.171791,88,1147.9,-0.0148,-0.0122,1.1271
2025-07-15 18:57:53.271791,88,1147.9,-0.0131,-0.0129,1.1252
2025-07-15 18:57:53.371791,88,1147.9,-0.0083,-0.0112,1.1132
2025-07-15 18:57:53.645539,90,1147.9,-0.0083,-0.0112,1.1132
2025-07-15 18:57:53.745539,90,1147.9,-0.0129,-0.0134,1.1289
2025-07-15 18:57:53.845539,90,1016.8,-0.0156,-0.0024,1.1352
2025-07-15 18:57:53.652999,92,1016.8,-0.0156,-0.0024,1.1352
2025-07-15 18:57:53.752999,92,623.6,-0.0183,-0.017,1.1279
2025-07-15 18:57:53.852999,92,492.5,-0.0131,-0.0087,1.1213
2025-07-15 18:57:53.972536,96,1147.9,-0.0136,-0.0153,1.1259
2025-07-15 18:57:54.072536,96,1278.9,-0.01,-0.0085,1.1235
2025-07-15 18:57:54.172536,96,1016.8,-0.0073,-0.0126,1.125
2025-07-15 18:57:54.251999,98,1016.8,-0.0073,-0.0126,1.125
2025-07-15 18:57:54.351999,98,885.7,-0.0141,-0.0097,1.1242
2025-07-15 18:57:54.451999,98,754.6,-0.0114,-0.0141,1.1218
2025-07-15 18:57:54.560040,101,754.6,-0.0112,-0.0117,1.122
2025-07-15 18:57:54.660040,101,754.6,-0.0075,-0.0129,1.1213
2025-07-15 18:57:54.760040,101,754.6,-0.0109,-0.0112,1.1201
2025-07-15 18:57:54.571923,102,754.6,-0.0075,-0.0129,1.1213
2025-07-15 18:57:54.671923,102,754.6,-0.0109,-0.0112,1.1201
2025-07-15 18:57:54.771923,102,492.5,-0.0124,-0.0141,1.1196
2025-07-15 18:57:54.874054,105,623.6,-0.0148,-0.01,1.1201
2025-07-15 18:57:54.974054,105,885.7,-0.0153,-0.0124,1.1303
2025-07-15 18:57:55.074054,105,1016.8,-0.0126,-0.0102,1.1257
2025-07-15 18:57:55.154373,107,1016.8,-0.0126,-0.0102,1.1257
2025-07-15 18:57:55.254373,107,885.7,-0.0078,-0.0104,1.1232
2025-07-15 18:57:55.354373,107,1016.8,-0.0153,-0.01,1.1203
2025-07-15 18:57:55.455660,108,885.7,-0.0078,-0.0104,1.1232
2025-07-15 18:57:55.555660,108,1016.8,-0.0153,-0.01,1.1203
2025-07-15 18:57:55.655660,108,1278.9,-0.0144,-0.0134,1.1289
2025-07-15 18:57:55.741466,110,1278.9,-0.0144,-0.0134,1.1289
2025-07-15 18:57:55.841466,110,1278.9,-0.0139,-0.0151,1.1286
2025-07-15 18:57:55.941466,110,1147.9,-0.0166,-0.0148,1.135
2025-07-15 18:57:55.770889,113,1147.9,-0.0112,-0.0109,1.1196
2025-07-15 18:57:55.870889,113,1147.9,-0.0092,-0.0114,1.124
2025-07-15 18:57:55.970889,113,1147.9,-0.0151,-0.0119,1.1254
2025-07-15 18:57:55.773090,114,1147.9,-0.0092,-0.0114,1.124
2025-07-15 18:57:55.873090,114,1147.9,-0.0151,-0.0119,1.1254
2025-07-15 18:57:55.973090,114,1016.8,-0.009,-0.0129,1.1262
2025-07-15 18:57:56.070570,117,492.5,-0.0119,-0.0107,1.1264
2025-07-15 18:57:56.170570,117,623.6,-0.0136,-0.0124,1.124
2025-07-15 18:57:56.270570,117,1016.8,-0.0141,-0.0097,1.1289
2025-07-15 18:57:56.357467,119,1016.8,-0.0141,-0.0097,1.1289
2025-07-15 18:57:56.457467,119,1016.8,-0.0139,-0.0112,1.122
2025-07-15 18:57:56.557467,119,1147.9,-0.0156,-0.0153,1.1254
2025-07-15 18:57:56.371265,120,1016.8,-0.0139,-0.0112,1.122
2025-07-15 18:57:56.471265,120,1147.9,-0.0156,-0.0153,1.1254
2025-07-15 18:57:56.571265,120,1147.9,-0.0148,-0.0087,1.1281
2025-07-15 18:57:56.657988,122,1147.9,-0.0148,-0.0087,1.1281
2025-07-15 18:57:56.757988,122,1016.8,-0.0129,-0.0109,1.122
2025-07-15 18:57:56.857988,122,1016.8,-0.0141,-0.0122,1.122
2025-07-15 18:57:56.673140,123,1016.8,-0.0129,-0.0109,1.122
2025-07-15 18:57:56.773140,123,1016.8,-0.0141,-0.0122,1.122
2025-07-15 18:57:56.873140,123,885.7,-0.018,-0.0095,1.1259
2025-07-15 18:57:57.414949,130,1016.8,-0.0104,-0.0063,1.1162
2025-07-15 18:57:57.514949,130,1147.9,-0.0153,-0.0117,1.1271
2025-07-15 18:57:57.614949,130,1278.9,-0.0129,-0.0139,1.1225
2025-07-15 18:57:57.861146,134,885.7,-0.0107,-0.01,1.1201
2025-07-15 18:57:57.961146,134,885.7,-0.01,-0.0153,1.1213
2025-07-15 18:57:58.061146,134,1016.8,-0.0117,-0.0112,1.1176
2025-07-15 18:57:58.158964,137,1016.8,-0.0136,-0.0153,1.1242
2025-07-15 18:57:58.258964,137,885.7,-0.0097,-0.0144,1.1247
2025-07-15 18:57:58.358964,137,1016.8,-0.0092,-0.0122,1.1232
2025-07-15 18:57:58.170931,138,885.7,-0.0097,-0.0144,1.1247
2025-07-15 18:57:58.270931,138,1016.8,-0.0092,-0.0122,1.1232
2025-07-15 18:57:58.370931,138,1016.8,-0.0185,-0.0141,1.1149
2025-07-15 18:57:58.453622,140,1016.8,-0.0185,-0.0141,1.1149
2025-07-15 18:57:58.553622,140,885.7,-0.0146,-0.008,1.1269
2025-07-15 18:57:58.653622,140,885.7,-0.0119,-0.0112,1.1213
2025-07-15 18:57:58.760164,143,1016.8,-0.0114,-0.0131,1.1169
2025-07-15 18:57:58.860164,143,1016.8,-0.0144,-0.0053,1.1279
2025-07-15 18:57:58.960164,143,492.5,-0.0122,-0.0129,1.123
2025-07-15 18:57:58.773268,144,1016.8,-0.0144,-0.0053,1.1279
2025-07-15 18:57:58.873268,144,492.5,-0.0122,-0.0129,1.123
2025-07-15 18:57:58.973268,144,623.6,-0.0085,-0.0117,1.1271
2025-07-15 18:57:59.056870,146,623.6,-0.0085,-0.0117,1.1271
2025-07-15 18:57:59.156870,146,754.6,-0.0129,-0.0124,1.1208
2025-07-15 18:57:59.256870,146,754.6,-0.0107,-0.0124,1.1252
2025-07-15 18:57:59.070550,147,754.6,-0.0129,-0.0124,1.1208
2025-07-15 18:57:59.170550,147,754.6,-0.0107,-0.0124,1.1252
2025-07-15 18:57:59.270550,147,623.6,-0.0144,-0.0112,1.1247
2025-07-15 18:57:59.840026,154,1278.9,-0.0109,-0.0092,1.1291
2025-07-15 18:57:59.940026,154,1016.8,-0.0097,-0.0112,1.1188
2025-07-15 18:58:00.040026,154,885.7,-0.0112,-0.0112,1.1223
2025-07-15 18:57:59.971478,155,1016.8,-0.0097,-0.0112,1.1188
2025-07-15 18:58:00.071478,155,885.7,-0.0112,-0.0112,1.1223
2025-07-15 18:58:00.171478,155,1278.9,-0.0124,-0.0112,1.1171
2025-07-15 18:58:01.453572,170,1147.9,-0.0109,-0.0122,1.1245
2025-07-15 18:58:01.553572,170,1016.8,-0.0073,-0.0141,1.1228
2025-07-15 18:58:01.653572,170,885.7,-0.0124,-0.0083,1.123
2025-07-15 18:58:01.753008,173,885.7,-0.0104,-0.0139,1.1225
2025-07-15 18:58:01.853008,173,1016.8,-0.0109,-0.0112,1.1267
2025-07-15 18:58:01.953008,173,754.6,-0.0187,-0.0085,1.1235
2025-07-15 18:58:01.770136,174,1016.8,-0.0109,-0.0112,1.1267
2025-07-15 18:58:01.870136,174,754.6,-0.0187,-0.0085,1.1235
2025-07-15 18:58:01.970136,174,492.5,-0.0107,-0.0073,1.1242
2025-07-15 18:58:02.647920,182,1278.9,-0.0102,-0.0102,1.1206
2025-07-15 18:58:02.747920,182,1016.8,-0.0114,-0.0073,1.1254
2025-07-15 18:58:02.847920,182,1016.8,-0.0126,-0.0129,1.1315
2025-07-15 18:58:03.370125,190,1147.9,-0.0083,-0.0124,1.1228
2025-07-15 18:58:03.470125,190,1410.0,-0.0131,-0.0095,1.1259
2025-07-15 18:58:03.570125,190,1147.9,-0.0129,-0.0139,1.1193
2025-07-15 18:58:03.559486,191,1410.0,-0.0131,-0.0095,1.1259
2025-07-15 18:58:03.659486,191,1147.9,-0.0129,-0.0139,1.1193
2025-07-15 18:58:03.759486,191,885.7,-0.0156,-0.0153,1.121
2025-07-15 18:58:04.459265,197,1016.8,-0.009,-0.0144,1.1271
2025-07-15 18:58:04.559265,197,885.7,-0.0095,-0.0148,1.1237
2025-07-15 18:58:04.659265,197,1016.8,-0.008,-0.0151,1.1235
2025-07-15 18:58:04.471888,201,1541.1,-0.0061,-0.0085,1.1179
2025-07-15 18:58:04.571888,201,1278.9,-0.007,-0.01,1.121
2025-07-15 18:58:04.671888,201,1016.8,-0.01,-0.0092,1.124
2025-07-15 18:58:04.759436,203,1016.8,-0.01,-0.0092,1.124
2025-07-15 18:58:04.859436,203,1016.8,-0.0141,-0.007,1.1193
2025-07-15 18:58:04.959436,203,1410.0,-0.0104,-0.0168,1.1269
2025-07-15 18:58:05.071173,207,754.6,-0.0139,-0.0087,1.1232
2025-07-15 18:58:05.171173,207,1016.8,-0.0092,-0.0126,1.1162
2025-07-15 18:58:05.271173,207,1016.8,-0.0122,-0.0136,1.1269
2025-07-15 18:58:05.358112,209,1016.8,-0.0122,-0.0136,1.1269
2025-07-15 18:58:05.458112,209,885.7,-0.0122,-0.0109,1.1154
2025-07-15 18:58:05.558112,209,885.7,-0.01,-0.0122,1.1218
2025-07-15 18:58:05.372139,210,885.7,-0.0122,-0.0109,1.1154
2025-07-15 18:58:05.472139,210,885.7,-0.01,-0.0122,1.1218
2025-07-15 18:58:05.572139,210,754.6,-0.0139,-0.0151,1.1284
2025-07-15 18:58:05.666350,212,754.6,-0.0139,-0.0151,1.1284
2025-07-15 18:58:05.766350,212,754.6,-0.0104,-0.0117,1.1208
2025-07-15 18:58:05.866350,212,754.6,-0.0107,-0.0114,1.1181
2025-07-15 18:58:05.949021,215,885.7,-0.0075,-0.009,1.121
2025-07-15 18:58:06.049021,215,1016.8,-0.0139,-0.0141,1.1232
2025-07-15 18:58:06.149021,215,1147.9,-0.0153,-0.0112,1.1271
2025-07-15 18:58:05.971322,216,1016.8,-0.0139,-0.0141,1.1232
2025-07-15 18:58:06.071322,216,1147.9,-0.0153,-0.0112,1.1271
2025-07-15 18:58:06.171322,216,1016.8,-0.0151,-0.0136,1.1196
2025-07-15 18:58:06.255475,218,1016.8,-0.0151,-0.0136,1.1196
2025-07-15 18:58:06.355475,218,754.6,-0.0122,-0.0131,1.1157
2025-07-15 18:58:06.455475,218,1147.9,-0.0102,-0.0134,1.1198
2025-07-15 18:58:06.870936,225,1147.9,-0.0097,-0.009,1.1218
2025-07-15 18:58:06.970936,225,1147.9,-0.0129,-0.0095,1.1279
2025-07-15 18:58:07.070936,225,1016.8,-0.0095,-0.0134,1.122
2025-07-15 18:58:07.770356,234,1016.8,-0.0063,-0.0112,1.1218
2025-07-15 18:58:07.870356,234,1016.8,-0.0114,-0.0107,1.1267
2025-07-15 18:58:07.970356,234,1278.9,-0.0107,-0.0134,1.1298
2025-07-15 18:58:08.056463,236,1278.9,-0.0107,-0.0134,1.1298
2025-07-15 18:58:08.156463,236,1016.8,-0.008,-0.0104,1.1289
2025-07-15 18:58:08.256463,236,1016.8,-0.0136,-0.0136,1.1208
2025-07-15 18:58:08.969590,239,1147.9,-0.0104,-0.0139,1.125
2025-07-15 18:58:09.069590,239,1147.9,-0.0107,-0.0131,1.1259
2025-07-15 18:58:09.169590,239,1016.8,-0.0117,-0.0126,1.1259
2025-07-15 18:58:09.252137,246,1016.8,-0.007,-0.0131,1.1271
2025-07-15 18:58:09.352137,246,1016.8,-0.0107,-0.0126,1.1245
2025-07-15 18:58:09.452137,246,1016.8,-0.0126,-0.0139,1.133
2025-07-15 18:58:09.255290,248,1016.8,-0.0126,-0.0139,1.133
2025-07-15 18:58:09.355290,248,1016.8,-0.0092,-0.0146,1.1186
2025-07-15 18:58:09.455290,248,1016.8,-0.0107,-0.0075,1.1186
2025-07-15 18:58:09.273728,249,1016.8,-0.0092,-0.0146,1.1186
2025-07-15 18:58:09.373728,249,1016.8,-0.0107,-0.0075,1.1186
2025-07-15 18:58:09.473728,249,885.7,-0.0185,-0.0131,1.1235
2025-07-15 18:58:09.855261,254,754.6,-0.0112,-0.009,1.1245
2025-07-15 18:58:09.955261,254,1016.8,-0.0163,-0.0102,1.1206
2025-07-15 18:58:10.055261,254,1016.8,-0.0117,-0.0097,1.1213
2025-07-15 18:58:10.158879,1,754.6,-0.0146,-0.0122,1.1232
2025-07-15 18:58:10.258879,1,623.6,-0.0129,-0.0112,1.1257
2025-07-15 18:58:10.358879,1,754.6,-0.0073,-0.0095,1.121
2025-07-15 18:58:10.473129,4,1016.8,-0.0107,-0.0104,1.1184
2025-07-15 18:58:10.573129,4,1410.0,-0.0146,-0.0141,1.1232
2025-07-15 18:58:10.673129,4,1147.9,-0.0102,-0.0129,1.1213
2025-07-15 18:58:10.772438,8,1147.9,-0.0109,-0.0095,1.1269
2025-07-15 18:58:10.872438,8,1147.9,-0.0104,-0.009,1.1232
2025-07-15 18:58:10.972438,8,1016.8,-0.01,-0.0112,1.1188
2025-07-15 18:58:11.057603,10,1016.8,-0.01,-0.0112,1.1188
2025-07-15 18:58:11.157603,10,754.6,-0.01,-0.0124,1.1311
2025-07-15 18:58:11.257603,10,754.6,-0.0129,-0.0173,1.1218
2025-07-15 18:58:11.072576,11,754.6,-0.01,-0.0124,1.1311
2025-07-15 18:58:11.172576,11,754.6,-0.0129,-0.0173,1.1218
2025-07-15 18:58:11.272576,11,754.6,-0.0095,-0.0122,1.1242
2025-07-15 18:58:11.353810,13,754.6,-0.0095,-0.0122,1.1242
2025-07-15 18:58:11.453810,13,623.6,-0.0146,-0.0122,1.1201
2025-07-15 18:58:11.553810,13,885.7,-0.0119,-0.0117,1.1198
2025-07-15 18:58:11.651736,16,1016.8,-0.0126,-0.0114,1.1171
2025-07-15 18:58:11.751736,16,754.6,-0.0148,-0.0117,1.1215
2025-07-15 18:58:11.851736,16,1016.8,-0.0131,-0.0117,1.122
2025-07-15 18:58:11.957693,19,1016.8,-0.0126,-0.0117,1.1274
2025-07-15 18:58:12.057693,19,754.6,-0.0153,-0.0075,1.1264
2025-07-15 18:58:12.157693,19,885.7,-0.0063,-0.0139,1.123
2025-07-15 18:58:12.258263,22,885.7,-0.0161,-0.0114,1.1259
2025-07-15 18:58:12.358263,22,1016.8,-0.0097,-0.0124,1.1232
2025-07-15 18:58:12.458263,22,1016.8,-0.0129,-0.0095,1.1137
2025-07-15 18:58:12.857001,28,885.7,-0.0085,-0.0107,1.1186
2025-07-15 18:58:12.957001,28,754.6,-0.0107,-0.0134,1.1315
2025-07-15 18:58:13.057001,28,623.6,-0.0095,-0.0083,1.1247
2025-07-15 18:58:13.370105,34,754.6,-0.0166,-0.0092,1.1162
2025-07-15 18:58:13.470105,34,754.6,-0.0134,-0.0102,1.1301
2025-07-15 18:58:13.570105,34,885.7,-0.0124,-0.0151,1.1303
2025-07-15 18:58:13.761943,37,1016.8,-0.0146,-0.0134,1.1247
2025-07-15 18:58:13.861943,37,885.7,-0.0129,-0.0102,1.1232
2025-07-15 18:58:13.961943,37,754.6,-0.0092,-0.0129,1.1257
2025-07-15 18:58:14.063839,40,1147.9,-0.008,-0.0136,1.1191
2025-07-15 18:58:14.163839,40,1147.9,-0.0114,-0.0124,1.1274
2025-07-15 18:58:14.263839,40,1147.9,-0.0129,-0.0092,1.1242
2025-07-15 18:58:14.353082,43,1147.9,-0.0144,-0.0141,1.1279
2025-07-15 18:58:14.453082,43,1016.8,-0.0136,-0.0092,1.122
2025-07-15 18:58:14.553082,43,1016.8,-0.0131,-0.01,1.1203
2025-07-15 18:58:15.257697,52,1016.8,-0.01,-0.0156,1.1193
2025-07-15 18:58:15.357697,52,754.6,-0.0122,-0.0097,1.1235
2025-07-15 18:58:15.457697,52,885.7,-0.0163,-0.0122,1.1269
2025-07-15 18:58:15.642381,56,1147.9,-0.0151,-0.01,1.1237
2025-07-15 18:58:15.742381,56,1147.9,-0.0151,-0.0136,1.1264
2025-07-15 18:58:15.842381,56,1278.9,-0.0107,-0.0112,1.1245
