timestamp,pressure,accel_x,accel_y,accel_z
2025-05-02 14:59:31.395876,1058.4,0.0317,0.0192,0.9667
2025-05-02 14:59:31.395994,1058.4,0.0317,0.0192,0.9667
2025-05-02 14:59:31.445233,1058.4,0.0317,0.0192,0.9667
2025-05-02 14:59:31.445353,1058.4,0.0317,0.0192,0.9667
2025-05-02 14:59:31.495171,1032.2,0.0361,0.0424,0.8862
2025-05-02 14:59:31.495299,1032.2,0.0361,0.0424,0.8862
2025-05-02 14:59:31.694495,1019.0999999999999,0.0297,0.009,0.9833
2025-05-02 14:59:31.694876,1019.0999999999999,0.0297,0.009,0.9833
2025-05-02 14:59:31.843207,1032.2,0.0358,0.0087,0.9821
2025-05-02 14:59:31.843325,1032.2,0.0358,0.0087,0.9821
2025-05-02 14:59:31.938429,1058.4,0.038,0.0112,0.967
2025-05-02 14:59:31.938949,1058.4,0.038,0.0112,0.967
2025-05-02 14:59:32.196704,1032.2,0.0402,0.0136,0.9716
2025-05-02 14:59:32.196842,1032.2,0.0402,0.0136,0.9716
2025-05-02 14:59:32.287881,1032.2,0.0402,0.0136,0.9716
2025-05-02 14:59:32.288379,1032.2,0.0402,0.0136,0.9716
2025-05-02 14:59:32.384648,1006.0,0.0341,0.0078,0.9665
2025-05-02 14:59:32.384985,1006.0,0.0341,0.0078,0.9665
2025-05-02 14:59:32.640863,1058.4,0.0341,0.0134,0.9782
2025-05-02 14:59:32.641089,1058.4,0.0341,0.0134,0.9782
2025-05-02 14:59:32.937915,1032.2,0.0334,0.0036,0.966
2025-05-02 14:59:32.938184,1032.2,0.0334,0.0036,0.966
2025-05-02 14:59:33.042318,1032.2,0.0341,0.0075,0.9685
2025-05-02 14:59:33.042873,1032.2,0.0341,0.0075,0.9685
2025-05-02 14:59:33.135873,1032.2,0.0305,0.0104,0.9675
2025-05-02 14:59:33.136080,1032.2,0.0305,0.0104,0.9675
2025-05-02 14:59:33.181699,1032.2,0.0305,0.0104,0.9675
2025-05-02 14:59:33.182009,1032.2,0.0305,0.0104,0.9675
2025-05-02 14:59:33.286481,1019.0999999999999,0.0302,0.01,0.9755
2025-05-02 14:59:33.286656,1019.0999999999999,0.0302,0.01,0.9755
2025-05-02 14:59:33.340231,1032.2,0.0439,0.0012,0.968
2025-05-02 14:59:33.340576,1032.2,0.0439,0.0012,0.968
2025-05-02 14:59:33.494899,1032.2,0.0363,0.0068,0.9772
2025-05-02 14:59:33.495226,1032.2,0.0363,0.0068,0.9772
2025-05-02 14:59:33.579623,1032.2,0.0363,0.0068,0.9772
2025-05-02 14:59:33.579838,1032.2,0.0363,0.0068,0.9772
2025-05-02 14:59:33.596954,1019.0999999999999,0.0405,0.0073,0.9648
2025-05-02 14:59:33.597467,1019.0999999999999,0.0405,0.0073,0.9648
2025-05-02 14:59:33.694379,1032.2,0.0285,0.0087,0.9685
2025-05-02 14:59:33.694786,1032.2,0.0285,0.0087,0.9685
2025-05-02 14:59:33.778806,1032.2,0.0285,0.0087,0.9685
2025-05-02 14:59:33.779228,1032.2,0.0285,0.0087,0.9685
2025-05-02 14:59:33.937778,1084.6,0.0314,0.0078,0.9663
2025-05-02 14:59:33.937996,1084.6,0.0314,0.0078,0.9663
2025-05-02 14:59:34.095356,1058.4,0.0288,0.0102,0.9614
2025-05-02 14:59:34.095706,1058.4,0.0288,0.0102,0.9614
2025-05-02 14:59:34.187206,1058.4,0.0288,0.0102,0.9614
2025-05-02 14:59:34.187422,1058.4,0.0288,0.0102,0.9614
2025-05-02 14:59:34.239622,1058.4,0.0302,0.0048,0.968
2025-05-02 14:59:34.239836,1058.4,0.0302,0.0048,0.968
2025-05-02 14:59:34.295850,1071.5,0.0334,0.0144,0.9794
2025-05-02 14:59:34.296181,1071.5,0.0334,0.0144,0.9794
2025-05-02 14:59:34.389995,1071.5,0.0334,0.0144,0.9794
2025-05-02 14:59:34.390256,1071.5,0.0334,0.0144,0.9794
2025-05-02 14:59:34.585636,1045.3,0.0393,0.0112,0.9697
2025-05-02 14:59:34.585808,1045.3,0.0393,0.0112,0.9697
2025-05-02 14:59:34.794971,1032.2,0.0332,0.0136,0.9672
2025-05-02 14:59:34.795259,1032.2,0.0332,0.0136,0.9672
2025-05-02 14:59:34.881351,1032.2,0.0332,0.0136,0.9672
2025-05-02 14:59:34.881655,1032.2,0.0332,0.0136,0.9672
2025-05-02 14:59:35.177260,1045.3,0.0339,0.0078,0.976
2025-05-02 14:59:35.296916,1071.5,0.0417,0.0136,0.975
2025-05-02 14:59:35.297261,1071.5,0.0417,0.0136,0.975
2025-05-02 14:59:35.395859,1084.6,0.0434,0.0119,0.9685
2025-05-02 14:59:35.396228,1084.6,0.0434,0.0119,0.9685
2025-05-02 14:59:35.894925,1084.6,0.0361,0.0114,0.9565
2025-05-02 14:59:35.895092,1084.6,0.0361,0.0114,0.9565
2025-05-02 14:59:35.983760,1084.6,0.0361,0.0114,0.9565
2025-05-02 14:59:35.984259,1084.6,0.0361,0.0114,0.9565
2025-05-02 14:59:35.984439,1084.6,0.0361,0.0114,0.9565
2025-05-02 14:59:35.997448,1071.5,0.0344,0.0119,0.9709
2025-05-02 14:59:35.997663,1071.5,0.0344,0.0119,0.9709
2025-05-02 14:59:36.037605,1071.5,0.0344,0.0119,0.9709
2025-05-02 14:59:36.037828,1071.5,0.0344,0.0119,0.9709
2025-05-02 14:59:36.084074,1071.5,0.0344,0.0119,0.9709
2025-05-02 14:59:36.084885,1071.5,0.0344,0.0119,0.9709
2025-05-02 14:59:36.165730,1032.2,0.0336,0.0122,0.9741
2025-05-02 14:59:36.285657,1032.2,0.0361,0.0065,0.9736
2025-05-02 14:59:36.285876,1032.2,0.0361,0.0065,0.9736
2025-05-02 14:59:36.341746,1032.2,0.0346,0.01,0.9631
2025-05-02 14:59:36.341961,1032.2,0.0346,0.01,0.9631
2025-05-02 14:59:36.495896,1058.4,0.0334,0.0075,0.9699
2025-05-02 14:59:36.496110,1058.4,0.0334,0.0075,0.9699
2025-05-02 14:59:36.547276,1058.4,0.0334,0.0075,0.9699
2025-05-02 14:59:36.547931,1058.4,0.0334,0.0075,0.9699
2025-05-02 14:59:36.640768,1058.4,0.0371,0.0129,0.9616
2025-05-02 14:59:36.640928,1058.4,0.0371,0.0129,0.9616
2025-05-02 14:59:36.683029,1058.4,0.0371,0.0129,0.9616
2025-05-02 14:59:36.683320,1058.4,0.0371,0.0129,0.9616
2025-05-02 14:59:36.938236,1006.0,0.038,0.0104,0.9743
2025-05-02 14:59:37.186747,1045.3,0.0356,0.0085,0.9602
2025-05-02 14:59:37.186964,1045.3,0.0356,0.0085,0.9602
2025-05-02 14:59:37.282020,1058.4,0.0358,0.0131,0.9733
2025-05-02 14:59:37.282328,1058.4,0.0358,0.0131,0.9733
2025-05-02 14:59:37.481633,1071.5,0.0339,0.0051,0.9692
2025-05-02 14:59:37.481950,1071.5,0.0339,0.0051,0.9692
2025-05-02 14:59:37.495215,1032.2,0.0324,0.0095,0.9667
2025-05-02 14:59:37.495548,1032.2,0.0324,0.0095,0.9667
2025-05-02 14:59:37.583751,1032.2,0.0324,0.0095,0.9667
2025-05-02 14:59:37.584078,1032.2,0.0324,0.0095,0.9667
2025-05-02 14:59:37.796626,1006.0,0.0358,0.0097,0.9719
2025-05-02 14:59:37.796960,1006.0,0.0358,0.0097,0.9719
2025-05-02 14:59:37.943486,992.9,0.0314,0.007,0.9753
2025-05-02 14:59:37.943652,992.9,0.0314,0.007,0.9753
2025-05-02 14:59:38.044149,992.9,0.0288,0.0144,0.9785
2025-05-02 14:59:38.044363,992.9,0.0288,0.0144,0.9785
2025-05-02 14:59:38.342656,1032.2,0.0322,0.0104,0.9733
2025-05-02 14:59:38.342834,1032.2,0.0322,0.0104,0.9733
2025-05-02 14:59:38.396532,1032.2,0.0292,0.0102,0.976
2025-05-02 14:59:38.396767,1032.2,0.0292,0.0102,0.976
2025-05-02 14:59:38.443634,1032.2,0.0292,0.0102,0.976
2025-05-02 14:59:38.443964,1032.2,0.0292,0.0102,0.976
2025-05-02 14:59:39.687348,1019.0999999999999,0.0385,0.0114,0.9697
2025-05-02 14:59:39.687734,1019.0999999999999,0.0385,0.0114,0.9697
2025-05-02 14:59:39.696152,979.8,0.0361,0.0131,0.9692
2025-05-02 14:59:39.696672,979.8,0.0361,0.0131,0.9692
2025-05-02 14:59:40.045994,1006.0,0.0339,0.0097,0.9719
2025-05-02 14:59:40.046212,1006.0,0.0339,0.0097,0.9719
2025-05-02 14:59:40.281266,1058.4,0.0253,0.0078,0.9663
2025-05-02 14:59:40.281471,1058.4,0.0253,0.0078,0.9663
2025-05-02 14:59:40.337334,1032.2,0.0332,0.0126,0.9682
2025-05-02 14:59:40.337539,1032.2,0.0332,0.0126,0.9682
2025-05-02 14:59:40.595474,1032.2,0.0361,0.0073,0.9692
2025-05-02 14:59:40.595647,1032.2,0.0361,0.0073,0.9692
2025-05-02 14:59:40.896280,1019.0999999999999,0.031,0.0078,0.9714
2025-05-02 14:59:40.896645,1019.0999999999999,0.031,0.0078,0.9714
2025-05-02 14:59:41.489286,1045.3,0.0346,0.0112,0.9672
2025-05-02 14:59:41.489600,1045.3,0.0346,0.0112,0.9672
2025-05-02 14:59:41.815006,1032.2,0.038,0.0102,0.9667
2025-05-02 14:59:42.095152,1032.2,0.0268,0.0117,0.9763
2025-05-02 14:59:42.095478,1032.2,0.0268,0.0117,0.9763
2025-05-02 14:59:42.395269,1032.2,0.0383,0.0112,0.9753
2025-05-02 14:59:42.395796,1032.2,0.0383,0.0112,0.9753
2025-05-02 14:59:42.697265,1071.5,0.0397,0.0019,0.9675
2025-05-02 14:59:42.698073,1071.5,0.0397,0.0019,0.9675
2025-05-02 14:59:42.984498,1071.5,0.0314,0.0124,0.9675
2025-05-02 14:59:42.985027,1071.5,0.0314,0.0124,0.9675
2025-05-02 14:59:43.284489,1045.3,0.0275,0.0092,0.975
2025-05-02 14:59:43.284705,1045.3,0.0275,0.0092,0.975
2025-05-02 14:59:43.294913,1019.0999999999999,0.0339,0.0085,0.9641
2025-05-02 14:59:43.295087,1019.0999999999999,0.0339,0.0085,0.9641
2025-05-02 14:59:43.596570,1058.4,0.03,0.0031,0.9772
2025-05-02 14:59:43.596770,1058.4,0.03,0.0031,0.9772
2025-05-02 14:59:43.888266,1045.3,0.0295,0.0117,0.9719
2025-05-02 14:59:43.888531,1045.3,0.0295,0.0117,0.9719
2025-05-02 14:59:43.902952,1045.3,0.0314,0.0065,0.9709
2025-05-02 14:59:44.188762,1045.3,0.0346,0.0068,0.9711
2025-05-02 14:59:44.189090,1045.3,0.0346,0.0068,0.9711
2025-05-02 14:59:44.496123,1071.5,0.0268,0.0078,0.9777
2025-05-02 14:59:44.496383,1071.5,0.0268,0.0078,0.9777
2025-05-02 14:59:44.778149,1084.6,0.0334,0.0117,0.9716
2025-05-02 14:59:44.778735,1084.6,0.0334,0.0117,0.9716
2025-05-02 14:59:45.387096,1045.3,0.038,0.0166,0.9594
2025-05-02 14:59:45.387472,1045.3,0.038,0.0166,0.9594
2025-05-02 14:59:45.688247,1058.4,0.0351,0.0097,0.9785
2025-05-02 14:59:45.688550,1058.4,0.0351,0.0097,0.9785
2025-05-02 14:59:45.986726,1019.0999999999999,0.0349,0.0068,0.9658
2025-05-02 14:59:45.986966,1019.0999999999999,0.0349,0.0068,0.9658
2025-05-02 14:59:45.995684,1045.3,0.0327,0.0041,0.9729
2025-05-02 14:59:45.995860,1045.3,0.0327,0.0041,0.9729
2025-05-02 14:59:46.280067,1032.2,0.0349,0.0136,0.9707
2025-05-02 14:59:46.280592,1032.2,0.0349,0.0136,0.9707
2025-05-02 14:59:46.296530,1045.3,0.0358,0.0102,0.9716
2025-05-02 14:59:46.297071,1045.3,0.0358,0.0102,0.9716
2025-05-02 14:59:47.487407,1058.4,0.0385,0.0092,0.9733
2025-05-02 14:59:47.487967,1058.4,0.0385,0.0092,0.9733
2025-05-02 14:59:47.785162,1058.4,0.0393,0.0065,0.9758
2025-05-02 14:59:47.785460,1058.4,0.0393,0.0065,0.9758
2025-05-02 14:59:48.087487,1032.2,0.0363,0.0039,0.9716
2025-05-02 14:59:48.087972,1032.2,0.0363,0.0039,0.9716
2025-05-02 14:59:48.394024,1084.6,0.0385,0.0078,0.9663
2025-05-02 14:59:48.394269,1084.6,0.0385,0.0078,0.9663
2025-05-02 14:59:49.045687,1019.0999999999999,0.028,0.009,0.968
2025-05-02 14:59:49.046321,1019.0999999999999,0.028,0.009,0.968
2025-05-02 14:59:49.595701,1058.4,0.0361,0.0109,0.9682
2025-05-02 14:59:49.595958,1058.4,0.0361,0.0109,0.9682
2025-05-02 14:59:49.881722,1019.0999999999999,0.0366,0.0034,0.9721
2025-05-02 14:59:49.881894,1019.0999999999999,0.0366,0.0034,0.9721
2025-05-02 14:59:50.181183,1071.5,0.027,0.0014,0.9699
2025-05-02 14:59:50.181446,1071.5,0.027,0.0014,0.9699
2025-05-02 14:59:50.194442,1032.2,0.0302,0.0083,0.9746
2025-05-02 14:59:50.194854,1032.2,0.0302,0.0083,0.9746
2025-05-02 14:59:51.387577,1058.4,0.0312,0.0129,0.9687
2025-05-02 14:59:51.387797,1058.4,0.0312,0.0129,0.9687
2025-05-02 14:59:51.697252,1032.2,0.0368,0.0158,0.9704
2025-05-02 14:59:51.697914,1032.2,0.0368,0.0158,0.9704
2025-05-02 14:59:52.885259,1045.3,0.0314,0.0058,0.9667
2025-05-02 14:59:52.885469,1045.3,0.0314,0.0058,0.9667
2025-05-02 14:59:53.502674,1071.5,0.0314,0.007,0.967
2025-05-02 14:59:53.778235,1019.0999999999999,0.0317,0.0087,0.9687
2025-05-02 14:59:53.778611,1019.0999999999999,0.0317,0.0087,0.9687
2025-05-02 14:59:53.797230,1032.2,0.0356,0.0048,0.9716
2025-05-02 14:59:53.797488,1032.2,0.0356,0.0048,0.9716
2025-05-02 14:59:54.389984,1071.5,0.0363,0.0065,0.9738
2025-05-02 14:59:54.390343,1071.5,0.0363,0.0065,0.9738
2025-05-02 14:59:54.695345,1032.2,0.0341,0.0092,0.9738
2025-05-02 14:59:54.695618,1032.2,0.0341,0.0092,0.9738
2025-05-02 14:59:54.988110,1032.2,0.0305,0.0058,0.9755
2025-05-02 14:59:54.988458,1032.2,0.0305,0.0058,0.9755
2025-05-02 14:59:55.023307,1019.0999999999999,0.0339,0.0034,0.9638
2025-05-02 14:59:55.293550,1019.0999999999999,0.0319,0.0119,0.9692
2025-05-02 14:59:55.293735,1019.0999999999999,0.0319,0.0119,0.9692
2025-05-02 14:59:55.580833,1045.3,0.0346,0.0124,0.9709
2025-05-02 14:59:55.581511,1045.3,0.0346,0.0124,0.9709
2025-05-02 14:59:55.888633,1058.4,0.0327,0.0085,0.9658
2025-05-02 14:59:55.888919,1058.4,0.0327,0.0085,0.9658
2025-05-02 14:59:56.194756,1019.0999999999999,0.0383,0.0058,0.9694
2025-05-02 14:59:56.195140,1019.0999999999999,0.0383,0.0058,0.9694
2025-05-02 14:59:56.538831,1032.2,0.0393,0.0124,0.9692
2025-05-02 14:59:56.539148,1032.2,0.0393,0.0124,0.9692
2025-05-02 14:59:56.786272,1019.0999999999999,0.0395,0.0095,0.9682
2025-05-02 14:59:56.786529,1019.0999999999999,0.0395,0.0095,0.9682
2025-05-02 14:59:56.796234,1045.3,0.0339,0.0051,0.9709
2025-05-02 14:59:56.796405,1045.3,0.0339,0.0051,0.9709
2025-05-02 14:59:57.077790,1045.3,0.0322,0.0097,0.9689
2025-05-02 14:59:57.078150,1045.3,0.0322,0.0097,0.9689
2025-05-02 14:59:57.379666,1032.2,0.0307,0.0161,0.9694
2025-05-02 14:59:57.380526,1032.2,0.0307,0.0161,0.9694
2025-05-02 14:59:57.966108,1019.0999999999999,0.0405,0.0124,0.9714
2025-05-02 14:59:58.280007,1071.5,0.0327,0.0107,0.977
2025-05-02 14:59:58.280338,1071.5,0.0327,0.0107,0.977
2025-05-02 14:59:59.496044,979.8,0.0361,0.0107,0.9721
2025-05-02 14:59:59.496334,979.8,0.0361,0.0107,0.9721
2025-05-02 15:00:00.083239,1045.3,0.0327,0.0051,0.9692
2025-05-02 15:00:00.084212,1045.3,0.0327,0.0051,0.9692
2025-05-02 15:00:00.095612,1045.3,0.0312,0.01,0.976
2025-05-02 15:00:00.096193,1045.3,0.0312,0.01,0.976
2025-05-02 15:00:01.295011,1058.4,0.0349,0.0056,0.9758
2025-05-02 15:00:01.295396,1058.4,0.0349,0.0056,0.9758
2025-05-02 15:00:01.588849,1019.0999999999999,0.0258,0.0148,0.9636
2025-05-02 15:00:01.589272,1019.0999999999999,0.0258,0.0148,0.9636
2025-05-02 15:00:01.596541,1006.0,0.0292,0.0039,0.9716
2025-05-02 15:00:01.596921,1006.0,0.0292,0.0039,0.9716
2025-05-02 15:00:01.893332,1058.4,0.0327,0.0085,0.9704
2025-05-02 15:00:01.893479,1058.4,0.0327,0.0085,0.9704
2025-05-02 15:00:02.844352,1045.3,0.0302,0.0065,0.977
2025-05-02 15:00:02.844565,1045.3,0.0302,0.0065,0.977
2025-05-02 15:00:03.086433,1058.4,0.0332,-0.0002,0.9741
2025-05-02 15:00:03.086752,1058.4,0.0332,-0.0002,0.9741
2025-05-02 15:00:03.094971,1058.4,0.018,0.0024,0.9731
2025-05-02 15:00:03.095200,1058.4,0.018,0.0024,0.9731
2025-05-02 15:00:03.395984,1058.4,0.0371,0.0007,0.9704
2025-05-02 15:00:03.396408,1058.4,0.0371,0.0007,0.9704
2025-05-02 15:00:03.736811,1032.2,0.028,0.0129,0.9748
2025-05-02 15:00:03.736934,1032.2,0.028,0.0129,0.9748
2025-05-02 15:00:03.779498,1032.2,0.028,0.0129,0.9748
2025-05-02 15:00:03.780156,1032.2,0.028,0.0129,0.9748
2025-05-02 15:00:03.795987,1019.0999999999999,0.0373,0.0178,0.9694
2025-05-02 15:00:03.796170,1019.0999999999999,0.0373,0.0178,0.9694
2025-05-02 15:00:03.938661,1019.0999999999999,0.0356,0.0034,0.9741
2025-05-02 15:00:03.939064,1019.0999999999999,0.0356,0.0034,0.9741
2025-05-02 15:00:03.988370,1019.0999999999999,0.0356,0.0034,0.9741
2025-05-02 15:00:03.988615,1019.0999999999999,0.0356,0.0034,0.9741
2025-05-02 15:00:04.094234,1071.5,0.0341,0.0104,0.9719
2025-05-02 15:00:04.094593,1071.5,0.0341,0.0104,0.9719
2025-05-02 15:00:04.196428,1045.3,0.041,0.0124,0.9743
2025-05-02 15:00:04.196671,1045.3,0.041,0.0124,0.9743
2025-05-02 15:00:04.283547,1045.3,0.041,0.0124,0.9743
2025-05-02 15:00:04.284044,1045.3,0.041,0.0124,0.9743
2025-05-02 15:00:04.332185,1032.2,0.0375,0.0068,0.9738
2025-05-02 15:00:04.694908,1058.4,0.0307,0.008,0.9758
2025-05-02 15:00:04.695163,1058.4,0.0307,0.008,0.9758
2025-05-02 15:00:04.744708,1058.4,0.0307,0.008,0.9758
2025-05-02 15:00:04.744976,1058.4,0.0307,0.008,0.9758
2025-05-02 15:00:05.038808,1045.3,0.0349,0.0161,0.9655
2025-05-02 15:00:05.039143,1045.3,0.0349,0.0161,0.9655
2025-05-02 15:00:05.196093,1006.0,0.0363,0.008,0.968
2025-05-02 15:00:05.196543,1006.0,0.0363,0.008,0.968
2025-05-02 15:00:05.335991,1019.0999999999999,0.0363,0.0146,0.968
2025-05-02 15:00:05.336207,1019.0999999999999,0.0363,0.0146,0.968
2025-05-02 15:00:05.377011,1019.0999999999999,0.0363,0.0146,0.968
2025-05-02 15:00:05.377185,1019.0999999999999,0.0363,0.0146,0.968
2025-05-02 15:00:05.695981,1032.2,0.0368,0.0083,0.9643
2025-05-02 15:00:05.696221,1032.2,0.0368,0.0083,0.9643
2025-05-02 15:00:06.194352,1032.2,0.0334,0.0148,0.978
2025-05-02 15:00:06.194544,1032.2,0.0334,0.0148,0.978
2025-05-02 15:00:06.394827,1045.3,0.0336,0.0156,0.9699
2025-05-02 15:00:06.395165,1045.3,0.0336,0.0156,0.9699
2025-05-02 15:00:06.585925,1045.3,0.0349,0.0056,0.977
2025-05-02 15:00:06.586275,1045.3,0.0349,0.0056,0.977
2025-05-02 15:00:06.595818,1019.0999999999999,0.0354,0.0058,0.9738
2025-05-02 15:00:06.596087,1019.0999999999999,0.0354,0.0058,0.9738
2025-05-02 15:00:06.637000,1019.0999999999999,0.0354,0.0058,0.9738
2025-05-02 15:00:06.637183,1019.0999999999999,0.0354,0.0058,0.9738
2025-05-02 15:00:06.694100,992.9,0.0344,0.0031,0.9682
2025-05-02 15:00:06.694509,992.9,0.0344,0.0031,0.9682
2025-05-02 15:00:06.941774,1045.3,0.0324,0.0109,0.9677
2025-05-02 15:00:06.941994,1045.3,0.0324,0.0109,0.9677
2025-05-02 15:00:06.996243,1071.5,0.0339,0.01,0.9692
2025-05-02 15:00:06.996577,1071.5,0.0339,0.01,0.9692
2025-05-02 15:00:07.036853,1071.5,0.0339,0.01,0.9692
2025-05-02 15:00:07.037068,1071.5,0.0339,0.01,0.9692
2025-05-02 15:00:07.144732,1058.4,0.0412,0.0134,0.976
2025-05-02 15:00:07.145275,1058.4,0.0412,0.0134,0.976
2025-05-02 15:00:07.239681,1045.3,0.0334,0.0134,0.9743
2025-05-02 15:00:07.240174,1045.3,0.0334,0.0134,0.9743
2025-05-02 15:00:07.280069,1045.3,0.0334,0.0134,0.9743
2025-05-02 15:00:07.280354,1045.3,0.0334,0.0134,0.9743
2025-05-02 15:00:07.380483,1058.4,0.0322,0.007,0.9621
2025-05-02 15:00:07.380812,1058.4,0.0322,0.007,0.9621
2025-05-02 15:00:07.641983,1045.3,0.0334,0.0112,0.9741
2025-05-02 15:00:07.642291,1045.3,0.0334,0.0112,0.9741
2025-05-02 15:00:07.888009,1045.3,0.0197,0.0065,0.9738
2025-05-02 15:00:07.888257,1045.3,0.0197,0.0065,0.9738
2025-05-02 15:00:07.994945,1032.2,0.0334,0.0083,0.9755
2025-05-02 15:00:07.995163,1032.2,0.0334,0.0083,0.9755
2025-05-02 15:00:08.044250,1032.2,0.0334,0.0083,0.9755
2025-05-02 15:00:08.044505,1032.2,0.0334,0.0083,0.9755
2025-05-02 15:00:08.094354,1032.2,0.0307,-0.0056,0.9729
2025-05-02 15:00:08.094818,1032.2,0.0307,-0.0056,0.9729
2025-05-02 15:00:08.282221,1045.3,0.0351,0.0085,0.9785
2025-05-02 15:00:08.282765,1045.3,0.0351,0.0085,0.9785
2025-05-02 15:00:08.293647,1045.3,0.0307,0.0146,0.9821
2025-05-02 15:00:08.293897,1045.3,0.0307,0.0146,0.9821
2025-05-02 15:00:08.335671,1045.3,0.0307,0.0146,0.9821
2025-05-02 15:00:08.335888,1045.3,0.0307,0.0146,0.9821
2025-05-02 15:00:08.395906,1019.0999999999999,0.0312,0.0117,0.9658
2025-05-02 15:00:08.396429,1019.0999999999999,0.0312,0.0117,0.9658
2025-05-02 15:00:08.483567,1019.0999999999999,0.0312,0.0117,0.9658
2025-05-02 15:00:08.483877,1019.0999999999999,0.0312,0.0117,0.9658
2025-05-02 15:00:08.493259,1019.0999999999999,0.0285,-0.0124,0.9714
2025-05-02 15:00:08.493515,1019.0999999999999,0.0285,-0.0124,0.9714
2025-05-02 15:00:08.742127,1032.2,0.0327,0.008,0.9721
2025-05-02 15:00:08.742336,1032.2,0.0327,0.008,0.9721
2025-05-02 15:00:08.940677,1058.4,0.028,-0.0017,0.9824
2025-05-02 15:00:08.940928,1058.4,0.028,-0.0017,0.9824
2025-05-02 15:00:08.982677,1058.4,0.028,-0.0017,0.9824
2025-05-02 15:00:08.982869,1058.4,0.028,-0.0017,0.9824
2025-05-02 15:00:09.296345,1019.0999999999999,0.0332,0.0114,0.9643
2025-05-02 15:00:09.296651,1019.0999999999999,0.0332,0.0114,0.9643
2025-05-02 15:00:09.535888,1032.2,0.0319,0.0136,0.9799
2025-05-02 15:00:09.536287,1032.2,0.0319,0.0136,0.9799
2025-05-02 15:00:09.594701,1006.0,0.0356,0.0104,0.9653
2025-05-02 15:00:09.595026,1006.0,0.0356,0.0104,0.9653
2025-05-02 15:00:09.642315,1006.0,0.0356,0.0104,0.9653
2025-05-02 15:00:09.642500,1006.0,0.0356,0.0104,0.9653
2025-05-02 15:00:09.687368,1006.0,0.0356,0.0104,0.9653
2025-05-02 15:00:09.687721,1006.0,0.0356,0.0104,0.9653
2025-05-02 15:00:09.978441,1019.0999999999999,0.0341,0.0036,0.9829
2025-05-02 15:00:09.978692,1019.0999999999999,0.0341,0.0036,0.9829
2025-05-02 15:00:10.038240,1032.2,0.0361,0.0078,0.9721
2025-05-02 15:00:10.038509,1032.2,0.0361,0.0078,0.9721
2025-05-02 15:00:10.383743,1032.2,0.0493,0.0139,0.9602
2025-05-02 15:00:10.384270,1032.2,0.0493,0.0139,0.9602
2025-05-02 15:00:10.495223,1045.3,0.0427,0.0161,0.9641
2025-05-02 15:00:10.495540,1045.3,0.0427,0.0161,0.9641
2025-05-02 15:00:10.583015,1045.3,0.0427,0.0161,0.9641
2025-05-02 15:00:10.583339,1045.3,0.0427,0.0161,0.9641
2025-05-02 15:00:10.596065,1045.3,0.0407,0.0134,0.9675
2025-05-02 15:00:10.596577,1045.3,0.0407,0.0134,0.9675
2025-05-02 15:00:10.643524,1045.3,0.0407,0.0134,0.9675
2025-05-02 15:00:10.643821,1045.3,0.0407,0.0134,0.9675
2025-05-02 15:00:10.686412,1045.3,0.0407,0.0134,0.9675
2025-05-02 15:00:10.686807,1045.3,0.0407,0.0134,0.9675
2025-05-02 15:00:10.695063,1058.4,0.0346,0.0043,0.9616
2025-05-02 15:00:10.695270,1058.4,0.0346,0.0043,0.9616
2025-05-02 15:00:10.795343,1058.4,0.038,0.0107,0.966
2025-05-02 15:00:10.795771,1058.4,0.038,0.0107,0.966
2025-05-02 15:00:10.835294,1058.4,0.038,0.0107,0.966
2025-05-02 15:00:10.836097,1058.4,0.038,0.0107,0.966
2025-05-02 15:00:10.894883,1045.3,0.0371,0.0107,0.9648
2025-05-02 15:00:10.895242,1045.3,0.0371,0.0107,0.9648
2025-05-02 15:00:11.053176,1045.3,0.0368,0.01,0.9731
2025-05-02 15:00:11.087418,1045.3,0.0368,0.01,0.9731
2025-05-02 15:00:11.087749,1045.3,0.0368,0.01,0.9731
2025-05-02 15:00:11.096904,1045.3,0.0375,0.0085,0.9758
2025-05-02 15:00:11.097462,1045.3,0.0375,0.0085,0.9758
2025-05-02 15:00:11.185097,1045.3,0.0375,0.0085,0.9758
2025-05-02 15:00:11.185398,1045.3,0.0375,0.0085,0.9758
2025-05-02 15:00:11.194405,1058.4,0.0329,0.0104,0.9631
2025-05-02 15:00:11.194624,1058.4,0.0329,0.0104,0.9631
2025-05-02 15:00:11.237714,1058.4,0.0329,0.0104,0.9631
2025-05-02 15:00:11.237885,1058.4,0.0329,0.0104,0.9631
2025-05-02 15:00:11.296707,1045.3,0.031,0.0085,0.9677
2025-05-02 15:00:11.297119,1045.3,0.031,0.0085,0.9677
2025-05-02 15:00:11.338584,1045.3,0.031,0.0085,0.9677
2025-05-02 15:00:11.338820,1045.3,0.031,0.0085,0.9677
2025-05-02 15:00:11.394762,1032.2,0.0339,0.008,0.9777
2025-05-02 15:00:11.395015,1032.2,0.0339,0.008,0.9777
2025-05-02 15:00:11.543957,1032.2,0.0368,0.0117,0.957
2025-05-02 15:00:11.544508,1032.2,0.0368,0.0117,0.957
2025-05-02 15:00:11.595750,1045.3,0.0317,0.0097,0.9768
2025-05-02 15:00:11.596097,1045.3,0.0317,0.0097,0.9768
2025-05-02 15:00:11.693689,1032.2,0.0329,0.0017,0.9794
2025-05-02 15:00:11.694118,1032.2,0.0329,0.0017,0.9794
2025-05-02 15:00:11.740202,1032.2,0.0329,0.0017,0.9794
2025-05-02 15:00:11.740880,1032.2,0.0329,0.0017,0.9794
2025-05-02 15:00:11.781091,1032.2,0.0329,0.0017,0.9794
2025-05-02 15:00:11.781524,1032.2,0.0329,0.0017,0.9794
2025-05-02 15:00:11.844224,1006.0,0.0405,0.0136,0.9638
2025-05-02 15:00:11.844482,1006.0,0.0405,0.0136,0.9638
2025-05-02 15:00:12.093970,1019.0999999999999,0.0373,0.0146,0.9733
2025-05-02 15:00:12.094192,1019.0999999999999,0.0373,0.0146,0.9733
2025-05-02 15:00:12.144521,1019.0999999999999,0.0373,0.0146,0.9733
2025-05-02 15:00:12.144739,1019.0999999999999,0.0373,0.0146,0.9733
2025-05-02 15:00:12.196023,1032.2,0.0307,0.0073,0.978
2025-05-02 15:00:12.196339,1032.2,0.0307,0.0073,0.978
2025-05-02 15:00:12.236534,1032.2,0.0307,0.0073,0.978
2025-05-02 15:00:12.236879,1032.2,0.0307,0.0073,0.978
2025-05-02 15:00:12.308491,1032.2,0.0307,0.0073,0.978
2025-05-02 15:00:12.545589,1032.2,0.0354,0.0173,0.9711
2025-05-02 15:00:12.545908,1032.2,0.0354,0.0173,0.9711
2025-05-02 15:00:12.794463,1071.5,0.0356,0.0095,0.9743
2025-05-02 15:00:12.794810,1071.5,0.0356,0.0095,0.9743
2025-05-02 15:00:12.894343,1071.5,0.0334,0.0104,0.9677
2025-05-02 15:00:12.894553,1071.5,0.0334,0.0104,0.9677
2025-05-02 15:00:12.936792,1071.5,0.0334,0.0104,0.9677
2025-05-02 15:00:12.937206,1071.5,0.0334,0.0104,0.9677
2025-05-02 15:00:12.995085,1071.5,0.0339,0.0124,0.975
2025-05-02 15:00:12.995315,1071.5,0.0339,0.0124,0.975
2025-05-02 15:00:13.040168,1071.5,0.0339,0.0124,0.975
2025-05-02 15:00:13.040408,1071.5,0.0339,0.0124,0.975
2025-05-02 15:00:13.093538,1045.3,0.0334,0.0136,0.967
2025-05-02 15:00:13.093917,1045.3,0.0334,0.0136,0.967
2025-05-02 15:00:13.140506,1045.3,0.0334,0.0136,0.967
2025-05-02 15:00:13.140912,1045.3,0.0334,0.0136,0.967
2025-05-02 15:00:13.279296,1019.0999999999999,0.0407,0.0112,0.9709
2025-05-02 15:00:13.279512,1019.0999999999999,0.0407,0.0112,0.9709
2025-05-02 15:00:13.338370,1032.2,0.0334,0.0102,0.9648
2025-05-02 15:00:13.338702,1032.2,0.0334,0.0102,0.9648
2025-05-02 15:00:13.386681,1032.2,0.0334,0.0102,0.9648
2025-05-02 15:00:13.387026,1032.2,0.0334,0.0102,0.9648
2025-05-02 15:00:13.396665,1045.3,0.0258,-0.0029,0.9831
2025-05-02 15:00:13.396872,1045.3,0.0258,-0.0029,0.9831
2025-05-02 15:00:13.485763,1045.3,0.0258,-0.0029,0.9831
2025-05-02 15:00:13.485942,1045.3,0.0258,-0.0029,0.9831
2025-05-02 15:00:13.494857,1045.3,0.0307,0.0058,0.9606
2025-05-02 15:00:13.495386,1045.3,0.0307,0.0058,0.9606
2025-05-02 15:00:13.695982,1032.2,0.0305,-0.0002,0.9697
2025-05-02 15:00:13.696222,1032.2,0.0305,-0.0002,0.9697
2025-05-02 15:00:13.785647,1032.2,0.0305,-0.0002,0.9697
2025-05-02 15:00:13.786368,1032.2,0.0305,-0.0002,0.9697
2025-05-02 15:00:13.881596,1058.4,0.0314,0.0107,0.9499
2025-05-02 15:00:13.881872,1058.4,0.0314,0.0107,0.9499
2025-05-02 15:00:13.894508,1071.5,0.0246,-0.0109,0.9851
2025-05-02 15:00:13.894723,1071.5,0.0246,-0.0109,0.9851
2025-05-02 15:00:13.936682,1071.5,0.0246,-0.0109,0.9851
2025-05-02 15:00:13.937010,1071.5,0.0246,-0.0109,0.9851
2025-05-02 15:00:13.976252,1071.5,0.0246,-0.0109,0.9851
2025-05-02 15:00:13.976756,1071.5,0.0246,-0.0109,0.9851
2025-05-02 15:00:14.095732,1045.3,0.0283,0.0156,0.9768
2025-05-02 15:00:14.095984,1045.3,0.0283,0.0156,0.9768
2025-05-02 15:00:14.181793,1045.3,0.0283,0.0156,0.9768
2025-05-02 15:00:14.182244,1045.3,0.0283,0.0156,0.9768
2025-05-02 15:00:14.235840,1045.3,0.031,0.0209,0.967
2025-05-02 15:00:14.236211,1045.3,0.031,0.0209,0.967
2025-05-02 15:00:14.394709,992.9,0.0361,0.0168,0.9707
2025-05-02 15:00:14.394992,992.9,0.0361,0.0168,0.9707
2025-05-02 15:00:14.438927,992.9,0.0361,0.0168,0.9707
2025-05-02 15:00:14.439169,992.9,0.0361,0.0168,0.9707
2025-05-02 15:00:14.643981,1006.0,0.0217,0.0058,0.9729
2025-05-02 15:00:14.644511,1006.0,0.0217,0.0058,0.9729
2025-05-02 15:00:14.760180,1006.0,0.0292,0.0178,0.9643
2025-05-02 15:00:14.785072,1006.0,0.0292,0.0178,0.9643
2025-05-02 15:00:14.785340,1006.0,0.0292,0.0178,0.9643
2025-05-02 15:00:14.895903,1006.0,0.0153,-0.007,0.999
2025-05-02 15:00:14.896463,1006.0,0.0153,-0.007,0.999
2025-05-02 15:00:14.994439,1006.0,-0.0083,0.0051,0.9819
2025-05-02 15:00:14.994679,1006.0,-0.0083,0.0051,0.9819
2025-05-02 15:00:15.058887,1006.0,-0.0083,0.0051,0.9819
2025-05-02 15:00:15.096958,1045.3,0.0302,0.0117,0.9968
2025-05-02 15:00:15.097528,1045.3,0.0302,0.0117,0.9968
2025-05-02 15:00:15.138724,1045.3,0.0302,0.0117,0.9968
2025-05-02 15:00:15.138944,1045.3,0.0302,0.0117,0.9968
2025-05-02 15:00:15.187513,1045.3,0.0302,0.0117,0.9968
2025-05-02 15:00:15.188119,1045.3,0.0302,0.0117,0.9968
2025-05-02 15:00:15.242921,1032.2,0.0317,0.0117,0.9848
2025-05-02 15:00:15.243149,1032.2,0.0317,0.0117,0.9848
2025-05-02 15:00:15.293963,1032.2,0.0358,0.0205,0.9636
2025-05-02 15:00:15.294338,1032.2,0.0358,0.0205,0.9636
2025-05-02 15:00:15.395166,1006.0,0.0339,0.0124,0.9624
2025-05-02 15:00:15.395633,1006.0,0.0339,0.0124,0.9624
2025-05-02 15:00:15.536544,1006.0,0.0341,0.0141,0.9765
2025-05-02 15:00:15.536937,1006.0,0.0341,0.0141,0.9765
2025-05-02 15:00:15.742329,1032.2,0.0312,0.0185,0.9807
2025-05-02 15:00:15.794989,1045.3,0.0349,0.0068,0.9685
2025-05-02 15:00:15.795224,1045.3,0.0349,0.0068,0.9685
2025-05-02 15:00:15.880634,1045.3,0.0349,0.0068,0.9685
2025-05-02 15:00:15.881039,1045.3,0.0349,0.0068,0.9685
2025-05-02 15:00:15.893112,1032.2,0.0336,0.0153,0.9802
2025-05-02 15:00:15.893335,1032.2,0.0336,0.0153,0.9802
2025-05-02 15:00:15.994638,1032.2,0.0285,0.0148,0.9619
2025-05-02 15:00:15.995168,1032.2,0.0285,0.0148,0.9619
2025-05-02 15:00:16.093192,1032.2,0.029,0.018,0.9719
2025-05-02 15:00:16.093458,1032.2,0.029,0.018,0.9719
2025-05-02 15:00:16.285520,1045.3,0.038,0.008,0.9675
2025-05-02 15:00:16.285913,1045.3,0.038,0.008,0.9675
2025-05-02 15:00:16.296503,1084.6,0.0344,0.0185,0.9763
2025-05-02 15:00:16.297375,1084.6,0.0344,0.0185,0.9763
2025-05-02 15:00:16.381290,1084.6,0.0344,0.0185,0.9763
2025-05-02 15:00:16.381471,1084.6,0.0344,0.0185,0.9763
2025-05-02 15:00:16.394732,1058.4,0.0378,0.0146,0.9763
2025-05-02 15:00:16.394860,1058.4,0.0378,0.0146,0.9763
2025-05-02 15:00:16.493338,1032.2,0.0324,0.0141,0.9721
2025-05-02 15:00:16.493577,1032.2,0.0324,0.0141,0.9721
2025-05-02 15:00:16.634146,1032.2,0.0324,0.0141,0.9721
2025-05-02 15:00:16.716958,1045.3,0.0314,0.0122,0.9714
2025-05-02 15:00:16.743126,1045.3,0.03,0.0131,0.9692
2025-05-02 15:00:16.743445,1045.3,0.03,0.0131,0.9692
2025-05-02 15:00:16.795832,1019.0999999999999,0.0317,0.0161,0.9716
2025-05-02 15:00:16.796256,1019.0999999999999,0.0317,0.0161,0.9716
2025-05-02 15:00:16.893104,1032.2,0.0341,0.0183,0.9694
2025-05-02 15:00:16.893325,1032.2,0.0341,0.0183,0.9694
2025-05-02 15:00:16.996117,1045.3,0.038,0.0109,0.9558
2025-05-02 15:00:16.996470,1045.3,0.038,0.0109,0.9558
2025-05-02 15:00:17.036999,1045.3,0.038,0.0109,0.9558
2025-05-02 15:00:17.037527,1045.3,0.038,0.0109,0.9558
2025-05-02 15:00:17.184158,992.9,0.0346,0.0058,0.9794
2025-05-02 15:00:17.184370,992.9,0.0346,0.0058,0.9794
2025-05-02 15:00:17.284677,979.8,0.0488,0.017,1.0126
2025-05-02 15:00:17.284919,979.8,0.0488,0.017,1.0126
2025-05-02 15:00:17.338493,1006.0,0.0498,-0.0104,0.9482
2025-05-02 15:00:17.338867,1006.0,0.0498,-0.0104,0.9482
2025-05-02 15:00:17.396846,1019.0999999999999,0.029,0.0004,0.9536
2025-05-02 15:00:17.397335,1019.0999999999999,0.029,0.0004,0.9536
2025-05-02 15:00:17.494235,1058.4,0.0249,0.0075,0.9775
2025-05-02 15:00:17.494501,1058.4,0.0249,0.0075,0.9775
2025-05-02 15:00:17.541387,1058.4,0.0249,0.0075,0.9775
2025-05-02 15:00:17.542168,1058.4,0.0249,0.0075,0.9775
2025-05-02 15:00:17.696451,1032.2,0.0146,0.0043,0.9677
2025-05-02 15:00:17.697005,1032.2,0.0146,0.0043,0.9677
2025-05-02 15:00:17.793753,1032.2,0.0195,-0.0029,0.9628
2025-05-02 15:00:17.793968,1032.2,0.0195,-0.0029,0.9628
2025-05-02 15:00:17.994267,1058.4,0.041,0.0178,0.9628
2025-05-02 15:00:17.994672,1058.4,0.041,0.0178,0.9628
2025-05-02 15:00:18.041126,1058.4,0.041,0.0178,0.9628
2025-05-02 15:00:18.041430,1058.4,0.041,0.0178,0.9628
2025-05-02 15:00:18.179969,1032.2,0.0332,0.0234,0.9736
2025-05-02 15:00:18.180459,1032.2,0.0332,0.0234,0.9736
2025-05-02 15:00:18.194080,992.9,0.0319,0.0246,0.9631
2025-05-02 15:00:18.194679,992.9,0.0319,0.0246,0.9631
2025-05-02 15:00:18.235859,992.9,0.0319,0.0246,0.9631
2025-05-02 15:00:18.236196,992.9,0.0319,0.0246,0.9631
2025-05-02 15:00:18.285886,992.9,0.0319,0.0246,0.9631
2025-05-02 15:00:18.286190,992.9,0.0319,0.0246,0.9631
2025-05-02 15:00:18.495600,1058.4,0.0234,0.029,0.979
2025-05-02 15:00:18.495868,1097.6999999999998,0.0295,0.017,0.9687
2025-05-02 15:00:18.496249,1097.6999999999998,0.0295,0.017,0.9687
2025-05-02 15:00:18.582172,1097.6999999999998,0.0295,0.017,0.9687
2025-05-02 15:00:18.582578,1097.6999999999998,0.0295,0.017,0.9687
2025-05-02 15:00:18.696404,1071.5,0.0307,0.01,0.9685
2025-05-02 15:00:18.696730,1071.5,0.0307,0.01,0.9685
2025-05-02 15:00:18.872694,1071.5,0.0366,0.0166,0.9638
2025-05-02 15:00:18.893911,1045.3,0.0168,0.0134,0.9667
2025-05-02 15:00:18.894241,1045.3,0.0168,0.0134,0.9667
2025-05-02 15:00:18.935451,1045.3,0.0168,0.0134,0.9667
2025-05-02 15:00:18.935929,1045.3,0.0168,0.0134,0.9667
2025-05-02 15:00:19.094228,1032.2,0.0207,0.0112,0.978
2025-05-02 15:00:19.094647,1032.2,0.0207,0.0112,0.978
2025-05-02 15:00:19.144196,1032.2,0.0207,0.0112,0.978
2025-05-02 15:00:19.144773,1032.2,0.0207,0.0112,0.978
2025-05-02 15:00:19.237799,1045.3,0.0275,0.0158,0.9836
2025-05-02 15:00:19.238238,1045.3,0.0275,0.0158,0.9836
2025-05-02 15:00:19.580486,1006.0,0.0224,0.0146,0.9743
2025-05-02 15:00:19.580999,1006.0,0.0224,0.0146,0.9743
2025-05-02 15:00:19.595785,1019.0999999999999,0.0317,0.0173,0.9624
2025-05-02 15:00:19.596101,1019.0999999999999,0.0317,0.0173,0.9624
2025-05-02 15:00:19.893340,1045.3,0.0214,0.0207,0.9609
2025-05-02 15:00:19.893832,1045.3,0.0214,0.0207,0.9609
2025-05-02 15:00:20.194580,1071.5,0.0241,0.0078,0.9716
2025-05-02 15:00:20.194848,1071.5,0.0241,0.0078,0.9716
2025-05-02 15:00:20.338100,1045.3,0.028,0.0166,0.9687
2025-05-02 15:00:20.338413,1045.3,0.028,0.0166,0.9687
2025-05-02 15:00:21.088657,1019.0999999999999,0.0314,0.0166,0.9755
2025-05-02 15:00:21.088877,1019.0999999999999,0.0314,0.0166,0.9755
2025-05-02 15:00:21.806996,992.9,0.0283,0.019,0.9697
2025-05-02 15:00:21.982341,1019.0999999999999,0.0305,0.0117,0.9775
2025-05-02 15:00:21.983189,1019.0999999999999,0.0305,0.0117,0.9775
2025-05-02 15:00:21.994136,1006.0,0.0385,0.01,0.967
2025-05-02 15:00:21.995214,1006.0,0.0385,0.01,0.967
2025-05-02 15:00:22.295238,1006.0,0.0483,0.0205,0.9406
2025-05-02 15:00:22.295590,1006.0,0.0483,0.0205,0.9406
2025-05-02 15:00:22.915960,1058.4,0.0332,0.0046,0.9729
2025-05-02 15:00:23.195424,1045.3,0.0397,0.0134,0.9741
2025-05-02 15:00:23.195747,1045.3,0.0397,0.0134,0.9741
2025-05-02 15:00:23.487609,1045.3,0.0417,0.0092,0.9697
2025-05-02 15:00:23.488094,1045.3,0.0417,0.0092,0.9697
2025-05-02 15:00:23.578866,1032.2,0.0273,0.0175,0.9699
2025-05-02 15:00:23.585999,1032.2,0.0273,0.0175,0.9699
2025-05-02 15:00:23.586189,1032.2,0.0273,0.0175,0.9699
2025-05-02 15:00:23.793830,1032.2,0.0344,0.0151,0.9697
2025-05-02 15:00:23.794182,1032.2,0.0344,0.0151,0.9697
2025-05-02 15:00:24.082006,1019.0999999999999,0.0358,0.0058,0.9721
2025-05-02 15:00:24.082231,1019.0999999999999,0.0358,0.0058,0.9721
2025-05-02 15:00:24.415830,1032.2,0.0319,0.0112,0.9731
2025-05-02 15:00:24.439548,1032.2,0.0319,0.0112,0.9731
2025-05-02 15:00:24.439957,1032.2,0.0319,0.0112,0.9731
2025-05-02 15:00:25.584265,1058.4,0.0261,0.0104,0.9711
2025-05-02 15:00:25.584464,1058.4,0.0261,0.0104,0.9711
2025-05-02 15:00:25.881940,1019.0999999999999,0.0292,0.0166,0.9719
2025-05-02 15:00:25.882165,1019.0999999999999,0.0292,0.0166,0.9719
2025-05-02 15:00:26.460781,1084.6,0.0295,0.0163,0.9733
2025-05-02 15:00:26.782461,1006.0,0.0371,0.0183,0.9672
2025-05-02 15:00:26.782675,1006.0,0.0371,0.0183,0.9672
2025-05-02 15:00:27.687075,1019.0999999999999,0.0288,0.0151,0.9692
2025-05-02 15:00:27.687478,1019.0999999999999,0.0288,0.0151,0.9692
2025-05-02 15:00:27.695275,1032.2,0.0336,0.0109,0.9743
2025-05-02 15:00:27.695620,1032.2,0.0336,0.0109,0.9743
2025-05-02 15:00:28.294044,1058.4,0.0268,0.0063,0.977
2025-05-02 15:00:28.294458,1058.4,0.0268,0.0063,0.977
2025-05-02 15:00:28.594865,1045.3,0.03,0.0163,0.9746
2025-05-02 15:00:28.595382,1045.3,0.03,0.0163,0.9746
2025-05-02 15:00:28.896070,1032.2,0.0341,0.0109,0.9677
2025-05-02 15:00:28.896428,1032.2,0.0341,0.0109,0.9677
2025-05-02 15:00:29.185856,1058.4,0.0346,0.0102,0.9672
2025-05-02 15:00:29.186419,1058.4,0.0346,0.0102,0.9672
2025-05-02 15:00:29.193531,1032.2,0.0378,0.0136,0.9692
2025-05-02 15:00:29.194060,1032.2,0.0378,0.0136,0.9692
2025-05-02 15:00:30.093179,1045.3,0.0329,0.0085,0.9672
2025-05-02 15:00:30.093484,1045.3,0.0329,0.0085,0.9672
2025-05-02 15:00:30.337354,1045.3,0.0322,0.0161,0.9667
2025-05-02 15:00:30.337784,1045.3,0.0322,0.0161,0.9667
2025-05-02 15:00:30.685897,1071.5,0.0344,0.0129,0.9748
2025-05-02 15:00:30.686329,1071.5,0.0344,0.0129,0.9748
2025-05-02 15:00:30.695418,1058.4,0.0285,0.0095,0.9714
2025-05-02 15:00:30.695637,1058.4,0.0285,0.0095,0.9714
2025-05-02 15:00:31.293736,1032.2,0.0375,0.0112,0.9753
2025-05-02 15:00:31.294014,1032.2,0.0375,0.0112,0.9753
2025-05-02 15:00:31.581909,1045.3,0.031,0.0183,0.9707
2025-05-02 15:00:31.582086,1045.3,0.031,0.0183,0.9707
2025-05-02 15:00:31.962884,1058.4,0.0385,0.0109,0.9633
2025-05-02 15:00:32.540092,1058.4,0.0292,0.0148,0.9667
2025-05-02 15:00:32.738328,1019.0999999999999,0.0366,0.0058,0.9721
2025-05-02 15:00:32.738629,1019.0999999999999,0.0366,0.0058,0.9721
2025-05-02 15:00:32.779474,1019.0999999999999,0.0366,0.0058,0.9721
2025-05-02 15:00:32.780072,1019.0999999999999,0.0366,0.0058,0.9721
2025-05-02 15:00:32.793710,1032.2,0.0295,0.0187,0.967
2025-05-02 15:00:32.794087,1032.2,0.0295,0.0187,0.967
2025-05-02 15:00:33.674256,1045.3,0.0402,0.0085,0.9716
2025-05-02 15:00:33.674483,1045.3,0.0402,0.0085,0.9716
2025-05-02 15:00:33.986072,1006.0,0.0349,0.0158,0.9677
2025-05-02 15:00:33.986293,1006.0,0.0349,0.0158,0.9677
2025-05-02 15:00:33.994682,1006.0,0.0322,0.0104,0.9716
2025-05-02 15:00:33.995465,1006.0,0.0322,0.0104,0.9716
2025-05-02 15:00:34.285527,1032.2,0.0378,0.0102,0.9667
2025-05-02 15:00:34.285856,1032.2,0.0378,0.0102,0.9667
2025-05-02 15:00:34.296078,1045.3,0.0312,0.0151,0.976
2025-05-02 15:00:34.296934,1045.3,0.0312,0.0151,0.976
2025-05-02 15:00:34.592835,1019.0999999999999,0.0349,0.01,0.9655
2025-05-02 15:00:34.593086,1019.0999999999999,0.0349,0.01,0.9655
2025-05-02 15:00:35.195146,1032.2,0.0322,0.0151,0.9748
2025-05-02 15:00:35.195483,1032.2,0.0322,0.0151,0.9748
2025-05-02 15:00:35.487313,1058.4,0.0361,0.0119,0.9672
2025-05-02 15:00:35.488042,1058.4,0.0361,0.0119,0.9672
2025-05-02 15:00:35.493051,1032.2,0.031,0.0126,0.9719
2025-05-02 15:00:35.493452,1032.2,0.031,0.0126,0.9719
2025-05-02 15:00:36.101818,1032.2,0.0329,0.0183,0.9763
2025-05-02 15:00:36.679267,1019.0999999999999,0.0322,0.0178,0.9714
2025-05-02 15:00:36.679667,1019.0999999999999,0.0322,0.0178,0.9714
2025-05-02 15:00:36.694536,992.9,0.0407,0.0144,0.9753
2025-05-02 15:00:36.695072,992.9,0.0407,0.0144,0.9753
2025-05-02 15:00:37.035585,1032.2,0.0363,0.0134,0.9709
2025-05-02 15:00:37.035868,1032.2,0.0363,0.0134,0.9709
2025-05-02 15:00:37.281908,1045.3,0.0319,0.0151,0.967
2025-05-02 15:00:37.283384,1045.3,0.0319,0.0151,0.967
2025-05-02 15:00:37.293200,1058.4,0.0351,0.0126,0.9704
2025-05-02 15:00:37.293568,1058.4,0.0351,0.0126,0.9704
2025-05-02 15:00:37.886613,1019.0999999999999,0.0385,0.0119,0.9675
2025-05-02 15:00:37.887360,1019.0999999999999,0.0385,0.0119,0.9675
2025-05-02 15:00:38.194061,966.7,0.0356,0.0102,0.9716
2025-05-02 15:00:38.194287,966.7,0.0356,0.0102,0.9716
2025-05-02 15:00:38.770495,1032.2,0.0339,0.0046,0.967
2025-05-02 15:00:38.783073,1019.0999999999999,0.0278,0.0146,0.9704
2025-05-02 15:00:38.783917,1019.0999999999999,0.0278,0.0146,0.9704
2025-05-02 15:00:38.795308,1032.2,0.0351,0.0156,0.9775
2025-05-02 15:00:38.795715,1032.2,0.0351,0.0156,0.9775
2025-05-02 15:00:39.684466,1032.2,0.0346,0.0109,0.9675
2025-05-02 15:00:39.685286,1032.2,0.0346,0.0109,0.9675
2025-05-02 15:00:39.696094,1006.0,0.03,0.0085,0.9758
2025-05-02 15:00:39.696330,1006.0,0.03,0.0085,0.9758
2025-05-02 15:00:40.481178,1032.2,0.0402,0.0104,0.965
2025-05-02 15:00:40.592654,1019.0999999999999,0.0307,0.018,0.9738
2025-05-02 15:00:40.592882,1019.0999999999999,0.0307,0.018,0.9738
2025-05-02 15:00:41.582193,1032.2,0.0292,0.0124,0.9687
2025-05-02 15:00:41.582582,1032.2,0.0292,0.0124,0.9687
2025-05-02 15:00:41.592829,1045.3,0.0324,0.0117,0.9638
2025-05-02 15:00:41.593082,1045.3,0.0324,0.0117,0.9638
2025-05-02 15:00:41.794036,1058.4,0.0327,0.0148,0.9731
2025-05-02 15:00:41.794294,1058.4,0.0327,0.0148,0.9731
2025-05-02 15:00:42.398573,1032.2,0.0344,0.0114,0.9611
2025-05-02 15:00:42.985725,1032.2,0.0378,0.0117,0.9746
2025-05-02 15:00:42.985942,1032.2,0.0378,0.0117,0.9746
2025-05-02 15:00:44.181292,1006.0,0.0329,0.0141,0.9738
2025-05-02 15:00:44.181579,1006.0,0.0329,0.0141,0.9738
2025-05-02 15:00:44.481912,1071.5,0.0339,0.0183,0.9687
2025-05-02 15:00:44.482230,1071.5,0.0339,0.0183,0.9687
2025-05-02 15:00:44.783963,1058.4,0.038,0.0136,0.9707
2025-05-02 15:00:44.784230,1058.4,0.038,0.0136,0.9707
2025-05-02 15:00:44.795124,1019.0999999999999,0.0322,0.0136,0.9582
2025-05-02 15:00:44.795334,1019.0999999999999,0.0322,0.0136,0.9582
2025-05-02 15:00:45.081755,1006.0,0.0734,0.0178,0.9523
2025-05-02 15:00:45.082562,1006.0,0.0734,0.0178,0.9523
2025-05-02 15:00:46.294042,1058.4,0.0356,0.0141,0.9628
2025-05-02 15:00:46.294328,1058.4,0.0356,0.0141,0.9628
2025-05-02 15:00:49.295321,1045.3,0.0378,0.027,0.9414
2025-05-02 15:00:49.295600,1045.3,0.0378,0.027,0.9414
2025-05-02 15:00:49.593699,1045.3,0.0349,0.0166,0.9685
2025-05-02 15:00:49.594066,1045.3,0.0349,0.0166,0.9685
2025-05-02 15:00:50.494544,1032.2,0.03,0.0109,0.9689
2025-05-02 15:00:50.495099,1032.2,0.03,0.0109,0.9689
2025-05-02 15:00:50.778406,1006.0,0.0368,0.0119,0.9709
2025-05-02 15:00:50.779031,1006.0,0.0368,0.0119,0.9709
2025-05-02 15:00:51.694696,1019.0999999999999,0.038,0.0085,0.9702
2025-05-02 15:00:51.695070,1019.0999999999999,0.038,0.0085,0.9702
2025-05-02 15:00:52.039845,1032.2,0.0317,0.0131,0.967
2025-05-02 15:00:52.040321,1032.2,0.0317,0.0131,0.967
2025-05-02 15:00:52.084985,1032.2,0.0317,0.0131,0.967
2025-05-02 15:00:52.085276,1032.2,0.0317,0.0131,0.967
2025-05-02 15:00:52.092700,1006.0,0.0322,0.0092,0.9677
2025-05-02 15:00:52.093204,1006.0,0.0322,0.0092,0.9677
2025-05-02 15:00:52.882380,1019.0999999999999,0.039,0.0117,0.9704
2025-05-02 15:00:52.882638,1019.0999999999999,0.039,0.0117,0.9704
2025-05-02 15:00:53.542282,1045.3,0.0351,0.009,0.9638
2025-05-02 15:00:53.542817,1045.3,0.0351,0.009,0.9638
2025-05-02 15:00:53.794086,1006.0,0.0351,0.0141,0.976
2025-05-02 15:00:53.794638,1006.0,0.0351,0.0141,0.976
2025-05-02 15:00:54.087610,1019.0999999999999,0.0314,0.0085,0.9692
2025-05-02 15:00:54.088050,1019.0999999999999,0.0314,0.0085,0.9692
2025-05-02 15:00:54.095513,1019.0999999999999,0.0305,0.0131,0.9628
2025-05-02 15:00:54.095748,1019.0999999999999,0.0305,0.0131,0.9628
2025-05-02 15:00:54.379235,1019.0999999999999,0.0314,0.0114,0.9726
2025-05-02 15:00:54.379482,1019.0999999999999,0.0314,0.0114,0.9726
2025-05-02 15:00:54.994566,1006.0,0.028,0.0175,0.9709
2025-05-02 15:00:54.994808,1006.0,0.028,0.0175,0.9709
2025-05-02 15:00:55.586677,1019.0999999999999,0.0349,0.0085,0.9772
2025-05-02 15:00:55.587222,1019.0999999999999,0.0349,0.0085,0.9772
2025-05-02 15:00:55.594785,1019.0999999999999,0.0288,0.0168,0.9677
2025-05-02 15:00:55.595317,1019.0999999999999,0.0288,0.0168,0.9677
2025-05-02 15:00:55.894853,1045.3,0.0302,0.0126,0.9685
2025-05-02 15:00:55.894982,1045.3,0.0302,0.0126,0.9685
2025-05-02 15:00:56.752183,1045.3,0.028,0.0114,0.9785
2025-05-02 15:00:56.784502,1019.0999999999999,0.0454,0.0437,0.9274
2025-05-02 15:00:56.784684,1019.0999999999999,0.0454,0.0437,0.9274
2025-05-02 15:00:57.092247,1071.5,0.0415,0.0061,1.0673
2025-05-02 15:00:57.092496,1071.5,0.0415,0.0061,1.0673
2025-05-02 15:00:57.980817,1019.0999999999999,0.0432,0.0144,0.957
2025-05-02 15:00:57.981049,1019.0999999999999,0.0432,0.0144,0.957
2025-05-02 15:00:58.876072,1045.3,0.0366,0.0224,0.9558
2025-05-02 15:00:58.876269,1045.3,0.0366,0.0224,0.9558
2025-05-02 15:00:58.892939,1045.3,0.0349,0.008,0.975
2025-05-02 15:00:58.893240,1045.3,0.0349,0.008,0.975
2025-05-02 15:00:59.468434,1071.5,0.0327,0.0039,0.9667
2025-05-02 15:00:59.486667,1045.3,0.0356,0.0139,0.9755
2025-05-02 15:00:59.486950,1045.3,0.0356,0.0139,0.9755
2025-05-02 15:01:00.694848,1058.4,0.0334,0.0212,0.9726
2025-05-02 15:01:00.694992,1058.4,0.0334,0.0212,0.9726
2025-05-02 15:01:01.092941,1032.2,0.0249,0.0107,0.977
2025-05-02 15:01:01.093320,1032.2,0.0249,0.0107,0.977
2025-05-02 15:01:01.243184,1045.3,0.0322,-0.0029,0.9697
2025-05-02 15:01:01.243535,1045.3,0.0322,-0.0029,0.9697
2025-05-02 15:01:01.540719,1045.3,0.0322,-0.0029,0.9697
2025-05-02 15:01:01.541347,1006.0,0.0466,0.0168,0.9333
2025-05-02 15:01:01.541552,1006.0,0.0466,0.0168,0.9333
2025-05-02 15:01:01.594171,979.8,0.0312,0.0166,0.9743
2025-05-02 15:01:01.594361,979.8,0.0312,0.0166,0.9743
2025-05-02 15:01:01.880402,1045.3,0.0314,0.0124,0.9755
2025-05-02 15:01:01.880608,1045.3,0.0314,0.0124,0.9755
2025-05-02 15:01:02.482228,992.9,0.0727,0.069,0.9687
2025-05-02 15:01:02.482623,992.9,0.0727,0.069,0.9687
2025-05-02 15:01:03.095295,1045.3,0.0344,0.0117,0.9589
2025-05-02 15:01:03.095512,1045.3,0.0344,0.0117,0.9589
2025-05-02 15:01:03.682439,1071.5,0.0363,0.0195,0.9741
2025-05-02 15:01:03.682615,1071.5,0.0363,0.0195,0.9741
2025-05-02 15:01:03.979904,1058.4,0.0397,0.0268,0.9719
2025-05-02 15:01:03.980110,1058.4,0.0397,0.0268,0.9719
2025-05-02 15:01:03.993782,1032.2,0.0429,0.0197,0.9675
2025-05-02 15:01:03.994049,1032.2,0.0429,0.0197,0.9675
2025-05-02 15:01:04.573828,1045.3,0.0322,0.01,0.9714
2025-05-02 15:01:04.573929,1045.3,0.0322,0.01,0.9714
2025-05-02 15:01:04.881933,1032.2,0.0373,0.0183,0.9841
2025-05-02 15:01:04.882442,1032.2,0.0373,0.0183,0.9841
2025-05-02 15:01:05.141794,1032.2,0.0437,0.0178,0.9794
2025-05-02 15:01:05.142351,1032.2,0.0437,0.0178,0.9794
2025-05-02 15:01:05.491917,1032.2,0.0378,0.0163,0.9787
2025-05-02 15:01:05.492226,1032.2,0.0378,0.0163,0.9787
2025-05-02 15:01:06.044835,1045.3,0.038,0.0144,0.9758
2025-05-02 15:01:06.045250,1045.3,0.038,0.0144,0.9758
2025-05-02 15:01:06.382141,1006.0,0.0344,0.0151,0.9733
2025-05-02 15:01:06.382402,1006.0,0.0344,0.0151,0.9733
2025-05-02 15:01:06.980026,1032.2,0.0339,0.0158,0.9755
2025-05-02 15:01:06.980358,1032.2,0.0339,0.0158,0.9755
2025-05-02 15:01:07.259940,1019.0999999999999,0.0324,0.0148,0.9736
2025-05-02 15:01:07.437253,1019.0999999999999,0.0327,0.0102,0.9743
2025-05-02 15:01:07.437464,1019.0999999999999,0.0327,0.0102,0.9743
2025-05-02 15:01:08.781576,1019.0999999999999,0.0329,0.0095,0.9663
2025-05-02 15:01:08.781751,1019.0999999999999,0.0329,0.0095,0.9663
2025-05-02 15:01:08.794078,1006.0,0.0234,0.0168,0.9707
2025-05-02 15:01:08.794436,1006.0,0.0234,0.0168,0.9707
2025-05-02 15:01:09.041562,1058.4,0.019,0.019,0.9638
2025-05-02 15:01:09.041753,1058.4,0.019,0.019,0.9638
2025-05-02 15:01:09.386388,1032.2,0.0246,0.0209,0.975
2025-05-02 15:01:09.386652,1032.2,0.0246,0.0209,0.975
2025-05-02 15:01:09.841198,1006.0,0.0275,0.0085,0.9731
2025-05-02 15:01:09.841476,1006.0,0.0275,0.0085,0.9731
2025-05-02 15:01:09.886633,1006.0,0.0275,0.0085,0.9731
2025-05-02 15:01:09.886957,1006.0,0.0275,0.0085,0.9731
2025-05-02 15:01:09.894564,1019.0999999999999,0.0183,0.0102,0.9719
2025-05-02 15:01:09.894921,1019.0999999999999,0.0183,0.0102,0.9719
2025-05-02 15:01:10.882518,1032.2,0.0249,0.0136,0.9777
2025-05-02 15:01:10.882854,1032.2,0.0249,0.0136,0.9777
2025-05-02 15:01:11.183592,1006.0,0.0253,0.0175,0.9841
2025-05-02 15:01:11.183795,1006.0,0.0253,0.0175,0.9841
2025-05-02 15:01:11.192642,992.9,0.1091,-0.0278,0.5646
2025-05-02 15:01:11.192918,992.9,0.1091,-0.0278,0.5646
2025-05-02 15:01:12.141313,1032.2,0.0344,0.0114,0.9729
2025-05-02 15:01:12.141718,1032.2,0.0344,0.0114,0.9729
2025-05-02 15:01:12.382774,1045.3,0.0341,0.0122,0.9685
2025-05-02 15:01:12.383478,1045.3,0.0341,0.0122,0.9685
2025-05-02 15:01:12.694488,1045.3,0.0332,0.018,0.9643
2025-05-02 15:01:12.694646,1045.3,0.0332,0.018,0.9643
2025-05-02 15:01:12.836265,1006.0,0.0361,0.0212,0.958
2025-05-02 15:01:12.836663,1006.0,0.0361,0.0212,0.958
2025-05-02 15:01:13.286571,1032.2,0.0307,0.0119,0.9733
2025-05-02 15:01:13.286698,1032.2,0.0307,0.0119,0.9733
2025-05-02 15:01:13.293415,1045.3,0.0344,0.0197,0.9716
2025-05-02 15:01:13.293543,1045.3,0.0344,0.0197,0.9716
2025-05-02 15:01:13.594163,1032.2,0.0336,0.0136,0.9638
2025-05-02 15:01:13.594404,1032.2,0.0336,0.0136,0.9638
2025-05-02 15:01:13.736333,1058.4,0.0339,0.0148,0.9736
2025-05-02 15:01:13.736629,1058.4,0.0339,0.0148,0.9736
2025-05-02 15:01:13.794721,1045.3,0.0344,0.0048,0.9785
2025-05-02 15:01:13.794855,1045.3,0.0344,0.0048,0.9785
2025-05-02 15:01:13.844443,1045.3,0.0344,0.0048,0.9785
2025-05-02 15:01:13.844622,1045.3,0.0344,0.0048,0.9785
2025-05-02 15:01:13.891023,1045.3,0.0344,0.0048,0.9785
2025-05-02 15:01:13.891841,1045.3,0.0339,0.0144,0.9753
2025-05-02 15:01:13.892057,1045.3,0.0339,0.0144,0.9753
2025-05-02 15:01:13.953759,1045.3,0.0339,0.0144,0.9753
2025-05-02 15:01:13.994394,1019.0999999999999,0.0317,0.0095,0.966
2025-05-02 15:01:13.994711,1019.0999999999999,0.0317,0.0095,0.966
2025-05-02 15:01:14.063549,1019.0999999999999,0.0317,0.0095,0.966
2025-05-02 15:01:14.184622,1006.0,0.0329,0.0163,0.9721
2025-05-02 15:01:14.185594,1006.0,0.0329,0.0163,0.9721
2025-05-02 15:01:14.460977,1006.0,0.0393,0.007,0.9692
2025-05-02 15:01:14.586882,1019.0999999999999,0.0339,0.0161,0.9648
2025-05-02 15:01:14.587161,1019.0999999999999,0.0339,0.0161,0.9648
2025-05-02 15:01:14.878253,1019.0999999999999,0.0249,0.0117,0.9863
2025-05-02 15:01:14.878659,1019.0999999999999,0.0249,0.0117,0.9863
2025-05-02 15:01:15.107636,1019.0999999999999,0.0319,0.0065,0.9704
2025-05-02 15:01:15.234510,1019.0999999999999,0.038,0.0087,0.9729
2025-05-02 15:01:15.234756,1019.0999999999999,0.038,0.0087,0.9729
2025-05-02 15:01:15.485577,1084.6,0.0322,0.0187,0.9704
2025-05-02 15:01:15.486346,1084.6,0.0322,0.0187,0.9704
2025-05-02 15:01:15.540890,1045.3,0.028,0.0192,0.9702
2025-05-02 15:01:15.541418,1045.3,0.028,0.0192,0.9702
2025-05-02 15:01:15.593682,1019.0999999999999,0.0344,0.01,0.9777
2025-05-02 15:01:15.594210,1019.0999999999999,0.0344,0.01,0.9777
2025-05-02 15:01:15.685476,1019.0999999999999,0.0344,0.01,0.9777
2025-05-02 15:01:15.685644,1019.0999999999999,0.0344,0.01,0.9777
2025-05-02 15:01:15.693908,1019.0999999999999,0.0334,0.0205,0.968
2025-05-02 15:01:15.694135,1019.0999999999999,0.0334,0.0205,0.968
2025-05-02 15:01:15.844239,1019.0999999999999,0.0375,0.0224,0.9721
2025-05-02 15:01:15.844567,1019.0999999999999,0.0375,0.0224,0.9721
2025-05-02 15:01:15.892484,1032.2,0.0329,0.0092,0.9694
2025-05-02 15:01:15.892720,1032.2,0.0329,0.0092,0.9694
2025-05-02 15:01:16.074787,1019.0999999999999,0.0244,0.0043,0.977
2025-05-02 15:01:16.074910,1019.0999999999999,0.0244,0.0043,0.977
2025-05-02 15:01:16.135645,1045.3,0.0312,0.0131,0.9809
2025-05-02 15:01:16.136186,1045.3,0.0312,0.0131,0.9809
2025-05-02 15:01:16.178872,1045.3,0.0312,0.0131,0.9809
2025-05-02 15:01:16.179206,1045.3,0.0312,0.0131,0.9809
2025-05-02 15:01:16.277522,1071.5,0.0266,0.0151,0.9746
2025-05-02 15:01:16.277821,1071.5,0.0266,0.0151,0.9746
2025-05-02 15:01:16.433205,1019.0999999999999,0.0354,0.0212,0.9758
2025-05-02 15:01:16.433445,1019.0999999999999,0.0354,0.0212,0.9758
2025-05-02 15:01:16.478922,1019.0999999999999,0.0354,0.0212,0.9758
2025-05-02 15:01:16.479139,1019.0999999999999,0.0354,0.0212,0.9758
2025-05-02 15:01:16.641563,992.9,0.0388,0.0065,0.977
2025-05-02 15:01:16.641865,992.9,0.0388,0.0065,0.977
2025-05-02 15:01:16.861029,1032.2,0.0366,0.0073,0.9658
2025-05-02 15:01:16.884272,1045.3,0.0383,0.0095,0.9677
2025-05-02 15:01:16.884452,1045.3,0.0383,0.0095,0.9677
2025-05-02 15:01:16.891542,1032.2,0.0375,0.0109,0.9631
2025-05-02 15:01:16.891779,1032.2,0.0375,0.0109,0.9631
2025-05-02 15:01:16.994601,1045.3,0.0305,0.0151,0.9738
2025-05-02 15:01:16.994782,1045.3,0.0305,0.0151,0.9738
2025-05-02 15:01:17.135196,1058.4,0.0339,0.0151,0.9758
2025-05-02 15:01:17.135467,1058.4,0.0339,0.0151,0.9758
2025-05-02 15:01:17.270745,1032.2,0.0383,0.0129,0.9663
2025-05-02 15:01:17.293885,1006.0,0.0317,0.0073,0.9697
2025-05-02 15:01:17.294239,1006.0,0.0317,0.0073,0.9697
2025-05-02 15:01:17.393652,1006.0,0.0422,0.0168,0.9687
2025-05-02 15:01:17.393809,1006.0,0.0422,0.0168,0.9687
2025-05-02 15:01:17.439669,1006.0,0.0422,0.0168,0.9687
2025-05-02 15:01:17.439878,1006.0,0.0422,0.0168,0.9687
2025-05-02 15:01:17.483281,1006.0,0.0422,0.0168,0.9687
2025-05-02 15:01:17.483716,1006.0,0.0422,0.0168,0.9687
2025-05-02 15:01:17.493186,1032.2,0.0312,0.0129,0.968
2025-05-02 15:01:17.493727,1032.2,0.0312,0.0129,0.968
2025-05-02 15:01:17.681171,1019.0999999999999,0.0332,0.0095,0.967
2025-05-02 15:01:17.681672,1019.0999999999999,0.0332,0.0095,0.967
2025-05-02 15:01:17.695187,1019.0999999999999,0.0351,0.0158,0.9694
2025-05-02 15:01:17.695497,1019.0999999999999,0.0351,0.0158,0.9694
2025-05-02 15:01:17.781031,1019.0999999999999,0.0351,0.0158,0.9694
2025-05-02 15:01:17.781266,1019.0999999999999,0.0351,0.0158,0.9694
2025-05-02 15:01:17.791674,992.9,0.0344,0.0058,0.9765
2025-05-02 15:01:17.791890,992.9,0.0344,0.0058,0.9765
2025-05-02 15:01:17.842005,992.9,0.0344,0.0058,0.9765
2025-05-02 15:01:17.842592,992.9,0.0344,0.0058,0.9765
2025-05-02 15:01:17.887285,992.9,0.0344,0.0058,0.9765
2025-05-02 15:01:17.887579,992.9,0.0344,0.0058,0.9765
2025-05-02 15:01:17.984957,992.9,0.0383,0.0146,0.9697
2025-05-02 15:01:17.985848,992.9,0.0383,0.0146,0.9697
2025-05-02 15:01:18.186200,1032.2,0.0397,0.0212,0.9626
2025-05-02 15:01:18.186554,1032.2,0.0397,0.0212,0.9626
2025-05-02 15:01:18.379773,1006.0,0.0302,0.0107,0.9799
2025-05-02 15:01:18.380137,1006.0,0.0302,0.0107,0.9799
2025-05-02 15:01:18.540966,1019.0999999999999,0.0373,0.0114,0.9699
2025-05-02 15:01:18.541178,1019.0999999999999,0.0373,0.0114,0.9699
2025-05-02 15:01:18.735857,1045.3,0.0397,0.0107,0.9741
2025-05-02 15:01:18.735974,1045.3,0.0397,0.0107,0.9741
2025-05-02 15:01:18.787723,1045.3,0.0397,0.0107,0.9741
2025-05-02 15:01:18.787946,1045.3,0.0397,0.0107,0.9741
2025-05-02 15:01:18.839792,1019.0999999999999,0.0356,0.0117,0.9763
2025-05-02 15:01:18.839965,1019.0999999999999,0.0356,0.0117,0.9763
2025-05-02 15:01:18.947025,1006.0,0.0336,0.0212,0.9677
2025-05-02 15:01:19.075697,1045.3,0.0368,0.0097,0.9777
2025-05-02 15:01:19.076435,1045.3,0.0368,0.0097,0.9777
2025-05-02 15:01:19.284002,1006.0,0.0395,0.0163,0.9704
2025-05-02 15:01:19.284452,1006.0,0.0395,0.0163,0.9704
2025-05-02 15:01:19.292436,1019.0999999999999,0.0324,0.0185,0.9653
2025-05-02 15:01:19.292832,1019.0999999999999,0.0324,0.0185,0.9653
2025-05-02 15:01:19.337421,1019.0999999999999,0.0324,0.0185,0.9653
2025-05-02 15:01:19.337597,1019.0999999999999,0.0324,0.0185,0.9653
2025-05-02 15:01:19.891869,992.9,0.04,0.0126,0.9628
2025-05-02 15:01:19.892311,992.9,0.04,0.0126,0.9628
2025-05-02 15:01:19.939599,992.9,0.04,0.0126,0.9628
2025-05-02 15:01:19.939961,992.9,0.04,0.0126,0.9628
2025-05-02 15:01:20.078842,1019.0999999999999,0.0344,0.0139,0.9797
2025-05-02 15:01:20.079291,1019.0999999999999,0.0344,0.0139,0.9797
2025-05-02 15:01:20.293784,1045.3,0.0244,0.0156,0.9694
2025-05-02 15:01:20.294278,1045.3,0.0244,0.0156,0.9694
2025-05-02 15:01:20.480983,1045.3,0.0244,0.0156,0.9694
2025-05-02 15:01:20.481763,1045.3,0.0349,0.0234,0.9685
2025-05-02 15:01:20.482065,1045.3,0.0349,0.0234,0.9685
2025-05-02 15:01:20.491940,1045.3,0.0356,0.0124,0.9821
2025-05-02 15:01:20.492121,1045.3,0.0356,0.0124,0.9821
2025-05-02 15:01:20.534121,1045.3,0.0356,0.0124,0.9821
2025-05-02 15:01:20.534387,1045.3,0.0356,0.0124,0.9821
2025-05-02 15:01:20.786696,1045.3,0.0324,0.0102,0.968
2025-05-02 15:01:20.787013,1045.3,0.0324,0.0102,0.968
2025-05-02 15:01:20.787214,1045.3,0.0324,0.0102,0.968
2025-05-02 15:01:20.883061,1058.4,0.0434,0.01,0.9692
2025-05-02 15:01:20.883501,1058.4,0.0434,0.01,0.9692
2025-05-02 15:01:21.082656,992.9,0.0339,0.0209,0.9655
2025-05-02 15:01:21.083058,992.9,0.0339,0.0209,0.9655
2025-05-02 15:01:21.183615,1019.0999999999999,0.0336,0.0122,0.9621
2025-05-02 15:01:21.183944,1019.0999999999999,0.0336,0.0122,0.9621
2025-05-02 15:01:21.393692,992.9,-0.0107,0.0666,0.7829
2025-05-02 15:01:21.394037,992.9,-0.0107,0.0666,0.7829
2025-05-02 15:01:21.481544,992.9,-0.0107,0.0666,0.7829
2025-05-02 15:01:21.482367,992.9,-0.0107,0.0666,0.7829
2025-05-02 15:01:21.591744,1019.0999999999999,0.0229,0.0148,0.9458
2025-05-02 15:01:21.591954,1019.0999999999999,0.0229,0.0148,0.9458
2025-05-02 15:01:21.684942,1019.0999999999999,0.0229,0.0148,0.9458
2025-05-02 15:01:21.685156,1019.0999999999999,0.0229,0.0148,0.9458
2025-05-02 15:01:21.937414,1006.0,0.061,0.0219,0.9633
2025-05-02 15:01:21.937514,1006.0,0.061,0.0219,0.9633
2025-05-02 15:01:22.141906,1032.2,0.0373,0.0061,0.9663
2025-05-02 15:01:22.142399,1032.2,0.0373,0.0061,0.9663
2025-05-02 15:01:22.186253,1032.2,0.0373,0.0061,0.9663
2025-05-02 15:01:22.186764,1032.2,0.0373,0.0061,0.9663
2025-05-02 15:01:22.235183,1032.2,0.0275,0.0122,0.9648
2025-05-02 15:01:22.235766,1032.2,0.0275,0.0122,0.9648
2025-05-02 15:01:22.493329,1019.0999999999999,0.0397,-0.0009,0.9895
2025-05-02 15:01:22.493814,1019.0999999999999,0.0397,-0.0009,0.9895
2025-05-02 15:01:22.739016,1019.0999999999999,0.0434,0.0065,0.9567
2025-05-02 15:01:22.739194,1019.0999999999999,0.0434,0.0065,0.9567
2025-05-02 15:01:22.792997,1045.3,0.0339,0.0151,0.9638
2025-05-02 15:01:22.793612,1045.3,0.0339,0.0151,0.9638
2025-05-02 15:01:22.884683,1045.3,0.0339,0.0151,0.9638
2025-05-02 15:01:22.884993,1045.3,0.0339,0.0151,0.9638
2025-05-02 15:01:22.937362,1032.2,0.0356,0.0156,0.9716
2025-05-02 15:01:22.937539,1032.2,0.0356,0.0156,0.9716
2025-05-02 15:01:23.045541,1032.2,0.038,0.0109,0.9614
2025-05-02 15:01:23.045712,1032.2,0.038,0.0109,0.9614
2025-05-02 15:01:23.091758,1032.2,0.0366,0.0112,0.967
2025-05-02 15:01:23.092243,1032.2,0.0366,0.0112,0.967
2025-05-02 15:01:23.180112,1032.2,0.0366,0.0112,0.967
2025-05-02 15:01:23.180473,1032.2,0.0366,0.0112,0.967
2025-05-02 15:01:23.536306,1019.0999999999999,0.0361,0.0256,0.9694
2025-05-02 15:01:23.536493,1019.0999999999999,0.0361,0.0256,0.9694
2025-05-02 15:01:23.634362,992.9,0.0397,0.0031,0.9912
2025-05-02 15:01:23.634659,992.9,0.0397,0.0031,0.9912
2025-05-02 15:01:23.741214,1006.0,0.0429,-0.0031,0.9616
2025-05-02 15:01:23.741748,1006.0,0.0429,-0.0031,0.9616
2025-05-02 15:01:23.893965,992.9,0.041,0.0205,0.9665
2025-05-02 15:01:23.894269,992.9,0.041,0.0205,0.9665
2025-05-02 15:01:23.937648,992.9,0.041,0.0205,0.9665
2025-05-02 15:01:23.937958,992.9,0.041,0.0205,0.9665
2025-05-02 15:01:23.981157,992.9,0.041,0.0205,0.9665
2025-05-02 15:01:23.981363,992.9,0.041,0.0205,0.9665
2025-05-02 15:01:24.079463,1006.0,0.0424,0.0095,0.9699
2025-05-02 15:01:24.079684,1006.0,0.0424,0.0095,0.9699
2025-05-02 15:01:24.094385,1045.3,0.0385,0.0163,0.966
2025-05-02 15:01:24.094925,1045.3,0.0385,0.0163,0.966
2025-05-02 15:01:24.192164,1045.3,0.0356,0.0163,0.9704
2025-05-02 15:01:24.192881,1045.3,0.0356,0.0163,0.9704
2025-05-02 15:01:24.391641,1032.2,0.0046,0.0446,1.0239
2025-05-02 15:01:24.391988,1032.2,0.0046,0.0446,1.0239
2025-05-02 15:01:24.440568,1032.2,0.0046,0.0446,1.0239
2025-05-02 15:01:24.440997,1032.2,0.0046,0.0446,1.0239
2025-05-02 15:01:24.575327,1019.0999999999999,0.0417,0.0231,0.9643
2025-05-02 15:01:24.575597,1019.0999999999999,0.0417,0.0231,0.9643
2025-05-02 15:01:24.592426,1019.0999999999999,0.0397,0.0305,0.9694
2025-05-02 15:01:24.592608,1019.0999999999999,0.0397,0.0305,0.9694
2025-05-02 15:01:24.695294,1006.0,0.0317,0.0122,0.9697
2025-05-02 15:01:24.695512,1006.0,0.0317,0.0122,0.9697
2025-05-02 15:01:24.792572,992.9,0.0332,0.0087,0.9636
2025-05-02 15:01:24.792788,992.9,0.0332,0.0087,0.9636
2025-05-02 15:01:25.129226,1006.0,0.0412,0.0168,0.9555
2025-05-02 15:01:25.194680,1006.0,0.0412,0.0168,0.9555
2025-05-02 15:01:25.195216,1006.0,0.0395,0.0019,0.9709
2025-05-02 15:01:25.195799,1006.0,0.0395,0.0019,0.9709
2025-05-02 15:01:25.379553,1006.0,0.0395,0.0019,0.9709
2025-05-02 15:01:25.539606,1006.0,0.0451,0.009,1.01
2025-05-02 15:01:25.539854,1006.0,0.0451,0.009,1.01
2025-05-02 15:01:25.692521,1019.0999999999999,0.0246,-0.0368,1.0832
2025-05-02 15:01:25.692854,1019.0999999999999,0.0246,-0.0368,1.0832
2025-05-02 15:01:25.742531,1019.0999999999999,0.0246,-0.0368,1.0832
2025-05-02 15:01:25.742922,1019.0999999999999,0.0246,-0.0368,1.0832
2025-05-02 15:01:25.794779,1058.4,0.0378,0.0217,0.9851
2025-05-02 15:01:25.795113,1058.4,0.0378,0.0217,0.9851
2025-05-02 15:01:25.837562,1058.4,0.0378,0.0217,0.9851
2025-05-02 15:01:25.837779,1058.4,0.0378,0.0217,0.9851
2025-05-02 15:01:25.877218,1058.4,0.0378,0.0217,0.9851
2025-05-02 15:01:25.878052,1058.4,0.0378,0.0217,0.9851
2025-05-02 15:01:26.084565,1045.3,0.0502,0.0148,0.9655
2025-05-02 15:01:26.085089,1045.3,0.0336,0.0341,0.9067
2025-05-02 15:01:26.085261,1045.3,0.0336,0.0341,0.9067
2025-05-02 15:01:26.094171,1032.2,0.05,0.0078,0.9633
2025-05-02 15:01:26.094564,1032.2,0.05,0.0078,0.9633
2025-05-02 15:01:26.191144,992.9,0.0368,-0.0046,0.9675
2025-05-02 15:01:26.191320,992.9,0.0368,-0.0046,0.9675
2025-05-02 15:01:26.240322,992.9,0.0368,-0.0046,0.9675
2025-05-02 15:01:26.240541,992.9,0.0368,-0.0046,0.9675
2025-05-02 15:01:26.383186,1006.0,0.0378,0.0039,0.9738
2025-05-02 15:01:26.383358,1006.0,0.0378,0.0039,0.9738
2025-05-02 15:01:26.392429,1032.2,0.0329,0.0139,0.9724
2025-05-02 15:01:26.393229,1032.2,0.0329,0.0139,0.9724
2025-05-02 15:01:26.493754,1032.2,0.0319,0.008,0.9741
2025-05-02 15:01:26.494035,1032.2,0.0319,0.008,0.9741
2025-05-02 15:01:26.623853,1032.2,0.0319,0.008,0.9741
2025-05-02 15:01:26.836848,1032.2,0.0378,0.0183,0.9655
2025-05-02 15:01:26.837054,1032.2,0.0378,0.0183,0.9655
2025-05-02 15:01:26.884552,1032.2,0.0378,0.0183,0.9655
2025-05-02 15:01:26.884733,1032.2,0.0378,0.0183,0.9655
2025-05-02 15:01:26.979002,1045.3,0.0466,0.0148,0.9626
2025-05-02 15:01:26.979448,1045.3,0.0466,0.0148,0.9626
2025-05-02 15:01:27.238241,1006.0,0.0295,-0.0007,0.9819
2025-05-02 15:01:27.238701,1006.0,0.0295,-0.0007,0.9819
2025-05-02 15:01:27.292322,1019.0999999999999,0.0261,0.0031,0.9807
2025-05-02 15:01:27.292493,1019.0999999999999,0.0261,0.0031,0.9807
2025-05-02 15:01:27.685775,1019.0999999999999,0.0358,0.0041,0.965
2025-05-02 15:01:27.686181,1019.0999999999999,0.0358,0.0041,0.965
2025-05-02 15:01:27.741113,1006.0,0.0373,0.0065,0.9719
2025-05-02 15:01:27.741333,1006.0,0.0373,0.0065,0.9719
2025-05-02 15:01:27.786366,1006.0,0.0373,0.0065,0.9719
2025-05-02 15:01:27.786542,1006.0,0.0373,0.0065,0.9719
2025-05-02 15:01:27.794121,1019.0999999999999,0.0393,0.0119,0.977
2025-05-02 15:01:27.794472,1019.0999999999999,0.0393,0.0119,0.977
2025-05-02 15:01:27.938962,1045.3,0.0302,0.0085,0.9797
2025-05-02 15:01:27.939314,1045.3,0.0302,0.0085,0.9797
2025-05-02 15:01:27.994154,1045.3,0.0317,0.0117,0.9799
2025-05-02 15:01:27.994376,1045.3,0.0317,0.0117,0.9799
2025-05-02 15:01:28.035857,1045.3,0.0317,0.0117,0.9799
2025-05-02 15:01:28.036401,1045.3,0.0317,0.0117,0.9799
2025-05-02 15:01:28.085283,1045.3,0.0317,0.0117,0.9799
2025-05-02 15:01:28.085531,1045.3,0.0317,0.0117,0.9799
2025-05-02 15:01:28.093513,1032.2,0.0283,0.0263,0.9721
2025-05-02 15:01:28.093689,1032.2,0.0283,0.0263,0.9721
2025-05-02 15:01:28.192125,1032.2,0.0322,0.0097,0.9768
2025-05-02 15:01:28.192398,1032.2,0.0322,0.0097,0.9768
2025-05-02 15:01:28.241711,1032.2,0.0322,0.0097,0.9768
2025-05-02 15:01:28.241890,1032.2,0.0322,0.0097,0.9768
2025-05-02 15:01:28.494500,1045.3,0.0327,0.0112,0.9743
2025-05-02 15:01:28.494807,1045.3,0.0327,0.0112,0.9743
2025-05-02 15:01:28.710754,1006.0,0.0393,0.0117,0.9643
2025-05-02 15:01:28.842997,966.7,0.0375,0.0231,0.9687
2025-05-02 15:01:28.843336,966.7,0.0375,0.0231,0.9687
2025-05-02 15:01:28.886926,966.7,0.0375,0.0231,0.9687
2025-05-02 15:01:28.887283,966.7,0.0375,0.0231,0.9687
2025-05-02 15:01:29.159451,1019.0999999999999,0.0327,0.007,0.9675
2025-05-02 15:01:29.187721,992.9,0.038,0.0129,0.956
2025-05-02 15:01:29.187938,992.9,0.038,0.0129,0.956
2025-05-02 15:01:29.473834,1019.0999999999999,0.0361,0.0136,0.9594
2025-05-02 15:01:29.474201,1019.0999999999999,0.0361,0.0136,0.9594
2025-05-02 15:01:29.491317,1019.0999999999999,0.0378,0.0151,0.9716
2025-05-02 15:01:29.491456,1019.0999999999999,0.0378,0.0151,0.9716
2025-05-02 15:01:29.778027,1032.2,0.0354,0.0048,0.9555
2025-05-02 15:01:29.778735,1032.2,0.0354,0.0048,0.9555
2025-05-02 15:01:29.793139,1045.3,0.039,0.0097,0.9746
2025-05-02 15:01:29.793382,1045.3,0.039,0.0097,0.9746
2025-05-02 15:01:30.084658,1045.3,0.0253,0.0151,0.9663
2025-05-02 15:01:30.085244,1045.3,0.0253,0.0151,0.9663
2025-05-02 15:01:30.094261,1032.2,0.0334,0.0126,0.9743
2025-05-02 15:01:30.094490,1032.2,0.0334,0.0126,0.9743
2025-05-02 15:01:30.136385,1032.2,0.0334,0.0126,0.9743
2025-05-02 15:01:30.136885,1032.2,0.0334,0.0126,0.9743
2025-05-02 15:01:30.683592,1006.0,0.0344,0.0141,0.965
2025-05-02 15:01:30.683906,1006.0,0.0344,0.0141,0.965
2025-05-02 15:01:30.693836,1006.0,0.0344,0.0148,0.9716
2025-05-02 15:01:30.694152,1006.0,0.0344,0.0148,0.9716
2025-05-02 15:01:30.979083,1006.0,0.0378,0.0144,0.9645
2025-05-02 15:01:30.979291,1006.0,0.0378,0.0144,0.9645
2025-05-02 15:01:31.292687,1045.3,0.0288,0.0266,0.9743
2025-05-02 15:01:31.292983,1045.3,0.0288,0.0266,0.9743
2025-05-02 15:01:31.872247,1045.3,0.0375,0.0185,0.967
2025-05-02 15:01:31.872732,1045.3,0.0375,0.0185,0.967
2025-05-02 15:01:31.891228,1045.3,0.0424,0.0092,0.9711
2025-05-02 15:01:31.891408,1045.3,0.0424,0.0092,0.9711
2025-05-02 15:01:32.179709,1006.0,0.0351,0.0156,0.9638
2025-05-02 15:01:32.180158,1006.0,0.0351,0.0156,0.9638
2025-05-02 15:01:32.791381,1006.0,0.0356,0.007,0.9777
2025-05-02 15:01:32.791873,1006.0,0.0356,0.007,0.9777
2025-05-02 15:01:33.381271,1032.2,0.0505,0.0229,0.9653
2025-05-02 15:01:33.381837,1032.2,0.0505,0.0229,0.9653
2025-05-02 15:01:33.392703,1058.4,0.0415,0.0144,0.9838
2025-05-02 15:01:33.393122,1058.4,0.0415,0.0144,0.9838
2025-05-02 15:01:33.693806,1045.3,0.0476,0.0092,0.9567
2025-05-02 15:01:33.694120,1045.3,0.0476,0.0092,0.9567
2025-05-02 15:01:34.010343,992.9,0.0261,0.0104,0.9833
2025-05-02 15:01:35.191766,1032.2,0.0432,0.0104,0.9685
2025-05-02 15:01:35.192682,992.9,0.0437,0.0187,0.9672
2025-05-02 15:01:35.193053,992.9,0.0437,0.0187,0.9672
2025-05-02 15:01:35.480118,953.6,0.0339,0.0134,0.9721
2025-05-02 15:01:35.480553,953.6,0.0339,0.0134,0.9721
2025-05-02 15:01:35.493665,966.7,0.0539,0.0004,0.9641
2025-05-02 15:01:35.493924,966.7,0.0539,0.0004,0.9641
2025-05-02 15:01:36.042803,1006.0,0.0585,0.0407,0.9624
2025-05-02 15:01:36.043319,1006.0,0.0585,0.0407,0.9624
2025-05-02 15:01:36.093053,966.7,0.0361,0.0168,0.9643
2025-05-02 15:01:36.093526,966.7,0.0361,0.0168,0.9643
2025-05-02 15:01:36.341931,979.8,0.0375,0.0102,0.9702
2025-05-02 15:01:36.342144,979.8,0.0375,0.0102,0.9702
2025-05-02 15:01:37.283480,1006.0,0.0307,0.0109,0.9687
2025-05-02 15:01:37.283807,1006.0,0.0307,0.0109,0.9687
2025-05-02 15:01:37.578391,1006.0,0.0373,0.0112,0.9663
2025-05-02 15:01:37.578778,1006.0,0.0349,0.0092,0.9663
2025-05-02 15:01:37.578983,1006.0,0.0349,0.0092,0.9663
2025-05-02 15:01:37.592197,992.9,0.0424,0.017,0.9645
2025-05-02 15:01:37.592400,992.9,0.0424,0.017,0.9645
2025-05-02 15:01:39.042809,1019.0999999999999,0.0375,0.0141,0.9755
2025-05-02 15:01:39.043357,1019.0999999999999,0.0375,0.0141,0.9755
2025-05-02 15:01:39.382055,992.9,0.0351,0.0158,0.9746
2025-05-02 15:01:39.382356,992.9,0.0351,0.0158,0.9746
2025-05-02 15:01:39.993737,979.8,0.0322,0.0092,0.9694
2025-05-02 15:01:39.994073,979.8,0.0322,0.0092,0.9694
2025-05-02 15:01:40.240865,953.6,0.0297,0.0102,0.9714
2025-05-02 15:01:40.241116,953.6,0.0297,0.0102,0.9714
2025-05-02 15:01:40.390948,992.9,0.0373,0.0092,0.9697
2025-05-02 15:01:40.391191,992.9,0.0373,0.0092,0.9697
2025-05-02 15:01:40.579178,1019.0999999999999,0.0327,0.0083,0.9775
2025-05-02 15:01:40.579409,1019.0999999999999,0.0327,0.0083,0.9775
2025-05-02 15:01:41.177023,1032.2,0.0402,0.0158,0.9743
2025-05-02 15:01:41.177242,1032.2,0.0402,0.0158,0.9743
2025-05-02 15:01:41.484577,1032.2,0.0329,0.0117,0.9714
2025-05-02 15:01:41.484806,1032.2,0.0329,0.0117,0.9714
2025-05-02 15:01:41.492073,1032.2,0.038,0.017,0.9699
2025-05-02 15:01:41.492273,1032.2,0.038,0.017,0.9699
2025-05-02 15:01:41.800427,1045.3,0.0385,0.0036,0.9604
2025-05-02 15:01:42.082901,1032.2,0.0395,0.0124,0.9716
2025-05-02 15:01:42.083581,1032.2,0.0395,0.0124,0.9716
2025-05-02 15:01:42.092669,1019.0999999999999,0.0412,0.0102,0.9633
2025-05-02 15:01:42.092880,1019.0999999999999,0.0412,0.0102,0.9633
2025-05-02 15:01:42.682760,1045.3,0.0327,0.0156,0.9707
2025-05-02 15:01:42.682978,1045.3,0.0327,0.0156,0.9707
2025-05-02 15:01:43.293350,1006.0,0.0314,0.018,0.9733
2025-05-02 15:01:43.293990,1006.0,0.0314,0.018,0.9733
2025-05-02 15:01:43.593468,992.9,0.0349,-0.0043,0.9792
2025-05-02 15:01:43.593685,992.9,0.0349,-0.0043,0.9792
2025-05-02 15:01:43.890962,1019.0999999999999,0.0363,0.0119,0.9636
2025-05-02 15:01:43.891217,1019.0999999999999,0.0363,0.0119,0.9636
2025-05-02 15:01:44.791483,1032.2,0.0378,0.0183,0.9736
2025-05-02 15:01:44.791888,1032.2,0.0378,0.0183,0.9736
2025-05-02 15:01:45.342059,1032.2,0.0305,0.0136,0.9719
2025-05-02 15:01:45.342650,1032.2,0.0346,0.0148,0.9685
2025-05-02 15:01:45.342865,1032.2,0.0346,0.0148,0.9685
2025-05-02 15:01:45.719596,966.7,0.0393,0.0126,0.9697
2025-05-02 15:01:46.285286,1006.0,0.0302,0.0209,0.9667
2025-05-02 15:01:46.285858,1006.0,0.0302,0.0209,0.9667
2025-05-02 15:01:46.293509,979.8,0.0295,0.0056,0.9736
2025-05-02 15:01:46.293682,979.8,0.0295,0.0056,0.9736
2025-05-02 15:01:46.590679,992.9,0.0322,0.0131,0.9687
2025-05-02 15:01:46.590966,992.9,0.0322,0.0131,0.9687
2025-05-02 15:01:47.578975,1032.2,0.0285,0.0097,0.9685
2025-05-02 15:01:47.579312,1032.2,0.0285,0.0097,0.9685
2025-05-02 15:01:47.792242,992.9,0.0332,0.0124,0.9711
2025-05-02 15:01:47.792951,992.9,0.0332,0.0124,0.9711
2025-05-02 15:01:48.383098,1032.2,0.0324,0.0175,0.9611
2025-05-02 15:01:48.383399,1032.2,0.0324,0.0175,0.9611
2025-05-02 15:01:48.390861,1058.4,0.0373,0.0078,0.9636
2025-05-02 15:01:48.391094,1058.4,0.0373,0.0078,0.9636
2025-05-02 15:01:48.692205,1045.3,0.0375,0.0124,0.9687
2025-05-02 15:01:48.692457,1045.3,0.0375,0.0124,0.9687
2025-05-02 15:01:48.980724,1032.2,0.0334,0.0092,0.9707
2025-05-02 15:01:48.981377,1032.2,0.0334,0.0092,0.9707
2025-05-02 15:01:48.993795,1006.0,0.0375,0.0146,0.9726
2025-05-02 15:01:48.994014,1006.0,0.0375,0.0146,0.9726
2025-05-02 15:01:49.332850,1032.2,0.0339,0.0148,0.9748
2025-05-02 15:01:49.333274,1032.2,0.0339,0.0148,0.9748
2025-05-02 15:01:49.843290,1006.0,0.0368,0.0087,0.9685
2025-05-02 15:01:49.843512,1006.0,0.0368,0.0087,0.9685
2025-05-02 15:01:49.938346,1006.0,0.0344,0.0073,0.9663
2025-05-02 15:01:49.939236,1006.0,0.0344,0.0073,0.9663
2025-05-02 15:01:50.190915,992.9,0.0354,0.0087,0.9699
2025-05-02 15:01:50.191313,992.9,0.0354,0.0087,0.9699
2025-05-02 15:01:50.336656,1019.0999999999999,0.0341,0.0124,0.9719
2025-05-02 15:01:50.336896,1019.0999999999999,0.0341,0.0124,0.9719
2025-05-02 15:01:50.782377,992.9,0.0358,0.0134,0.9753
2025-05-02 15:01:50.782678,992.9,0.0358,0.0134,0.9753
2025-05-02 15:01:50.793738,1006.0,0.0383,0.0122,0.9619
2025-05-02 15:01:50.794101,1006.0,0.0383,0.0122,0.9619
2025-05-02 15:01:51.091425,979.8,0.0314,0.0136,0.9677
2025-05-02 15:01:51.091830,979.8,0.0314,0.0136,0.9677
2025-05-02 15:01:51.393060,979.8,0.0361,0.0126,0.9743
2025-05-02 15:01:51.393612,979.8,0.0361,0.0126,0.9743
2025-05-02 15:01:51.693527,1019.0999999999999,0.0312,0.0126,0.975
2025-05-02 15:01:51.693933,1019.0999999999999,0.0312,0.0126,0.975
2025-05-02 15:01:52.891561,1006.0,0.0339,0.0161,0.9746
2025-05-02 15:01:52.891900,1006.0,0.0339,0.0161,0.9746
2025-05-02 15:01:53.194133,1019.0999999999999,0.0322,0.0117,0.9685
2025-05-02 15:01:53.194309,1019.0999999999999,0.0322,0.0117,0.9685
2025-05-02 15:01:53.478492,1019.0999999999999,0.0322,0.0117,0.9685
2025-05-02 15:01:53.478660,992.9,0.0358,0.0136,0.975
2025-05-02 15:01:53.478954,992.9,0.0358,0.0136,0.975
2025-05-02 15:01:53.493234,1019.0999999999999,0.0371,0.0114,0.9675
2025-05-02 15:01:53.493635,1019.0999999999999,0.0371,0.0114,0.9675
2025-05-02 15:01:53.733843,1019.0999999999999,0.041,0.0102,0.9755
2025-05-02 15:01:53.734389,1019.0999999999999,0.041,0.0102,0.9755
2025-05-02 15:01:53.783782,1019.0999999999999,0.041,0.0102,0.9755
2025-05-02 15:01:53.784324,1019.0999999999999,0.041,0.0102,0.9755
2025-05-02 15:01:54.090852,1006.0,0.0288,0.0122,0.9733
2025-05-02 15:01:54.091204,1006.0,0.0288,0.0122,0.9733
2025-05-02 15:01:54.134043,1006.0,0.0288,0.0122,0.9733
2025-05-02 15:01:54.134404,1006.0,0.0288,0.0122,0.9733
2025-05-02 15:01:54.693282,992.9,0.0349,0.0068,0.9702
2025-05-02 15:01:54.693442,992.9,0.0349,0.0068,0.9702
2025-05-02 15:01:55.276747,1006.0,0.0334,0.0163,0.9631
2025-05-02 15:01:55.277030,1006.0,0.0334,0.0163,0.9631
2025-05-02 15:01:55.292063,1019.0999999999999,0.0329,0.017,0.9724
2025-05-02 15:01:55.292581,1019.0999999999999,0.0329,0.017,0.9724
2025-05-02 15:01:55.587001,1006.0,0.0395,0.0114,0.9746
2025-05-02 15:01:55.587645,1006.0,0.0395,0.0114,0.9746
2025-05-02 15:01:55.594056,1006.0,0.0327,0.0144,0.9714
2025-05-02 15:01:55.594870,1006.0,0.0327,0.0144,0.9714
2025-05-02 15:01:55.884919,1019.0999999999999,0.0388,0.0158,0.9663
2025-05-02 15:01:55.885142,1019.0999999999999,0.0388,0.0158,0.9663
2025-05-02 15:01:55.892257,1006.0,0.0361,0.008,0.9772
2025-05-02 15:01:55.892583,1006.0,0.0361,0.008,0.9772
2025-05-02 15:01:56.184766,992.9,0.0317,0.0122,0.9707
2025-05-02 15:01:56.185319,992.9,0.0317,0.0122,0.9707
2025-05-02 15:01:56.192288,992.9,0.0354,0.0161,0.9724
2025-05-02 15:01:56.192829,992.9,0.0354,0.0161,0.9724
2025-05-02 15:01:56.481669,1045.3,0.0358,0.007,0.9675
2025-05-02 15:01:56.481845,1045.3,0.0358,0.007,0.9675
2025-05-02 15:01:56.493553,1032.2,0.0307,0.0126,0.9731
2025-05-02 15:01:56.493881,1032.2,0.0307,0.0126,0.9731
2025-05-02 15:01:56.784362,1045.3,0.0344,0.0158,0.9746
2025-05-02 15:01:56.784899,1045.3,0.0344,0.0158,0.9746
2025-05-02 15:01:57.092586,1006.0,0.0368,0.0065,0.9636
2025-05-02 15:01:57.092791,1006.0,0.0368,0.0065,0.9636
2025-05-02 15:01:57.393851,992.9,0.038,0.0104,0.9692
2025-05-02 15:01:57.394182,992.9,0.038,0.0104,0.9692
2025-05-02 15:01:57.691565,979.8,0.0334,0.0112,0.9775
2025-05-02 15:01:57.691766,979.8,0.0334,0.0112,0.9775
2025-05-02 15:01:58.292481,966.7,0.0339,0.0122,0.9746
2025-05-02 15:01:58.293347,1006.0,0.0351,0.0031,0.9643
2025-05-02 15:01:58.293643,1006.0,0.0351,0.0031,0.9643
2025-05-02 15:01:58.579042,966.7,0.0319,0.0061,0.9721
2025-05-02 15:01:58.579282,966.7,0.0319,0.0061,0.9721
2025-05-02 15:01:58.791164,966.7,0.0373,0.0173,0.9682
2025-05-02 15:01:58.791383,966.7,0.0373,0.0173,0.9682
2025-05-02 15:01:59.193096,1006.0,0.0393,0.0112,0.9755
2025-05-02 15:01:59.193310,1006.0,0.0393,0.0112,0.9755
2025-05-02 15:01:59.490726,1019.0999999999999,0.0375,0.0104,0.9614
2025-05-02 15:01:59.491041,1019.0999999999999,0.0375,0.0104,0.9614
2025-05-02 15:01:59.793113,992.9,0.0354,0.0195,0.9724
2025-05-02 15:01:59.793623,992.9,0.0354,0.0195,0.9724
2025-05-02 15:02:00.337988,966.7,0.0375,0.0102,0.9667
2025-05-02 15:02:00.338446,966.7,0.0375,0.0102,0.9667
2025-05-02 15:02:00.380638,966.7,0.0375,0.0102,0.9667
2025-05-02 15:02:00.380854,966.7,0.0375,0.0102,0.9667
2025-05-02 15:02:00.392289,992.9,0.0349,0.0163,0.9694
2025-05-02 15:02:00.392473,992.9,0.0349,0.0163,0.9694
2025-05-02 15:02:00.492128,992.9,0.0351,0.0075,0.9687
2025-05-02 15:02:00.492431,992.9,0.0351,0.0075,0.9687
2025-05-02 15:02:01.585644,992.9,0.0368,0.0063,0.9665
2025-05-02 15:02:01.585979,992.9,0.0368,0.0063,0.9665
2025-05-02 15:02:01.593649,979.8,0.0314,0.0073,0.9667
2025-05-02 15:02:01.593881,979.8,0.0314,0.0073,0.9667
2025-05-02 15:02:01.890654,1006.0,0.0397,0.029,0.9636
2025-05-02 15:02:01.890843,1006.0,0.0397,0.029,0.9636
2025-05-02 15:02:02.181333,1006.0,0.0375,0.0058,0.9731
2025-05-02 15:02:02.181882,1006.0,0.0375,0.0058,0.9731
2025-05-02 15:02:02.461406,1006.0,0.0385,0.008,0.9694
2025-05-02 15:02:02.791758,1019.0999999999999,0.0385,0.0161,0.9643
2025-05-02 15:02:02.792172,1019.0999999999999,0.0385,0.0161,0.9643
2025-05-02 15:02:03.075039,1019.0999999999999,0.0341,0.0126,0.9704
2025-05-02 15:02:03.075640,1019.0999999999999,0.0341,0.0126,0.9704
2025-05-02 15:02:03.676858,992.9,0.0383,0.0097,0.9697
2025-05-02 15:02:03.677201,992.9,0.0383,0.0097,0.9697
2025-05-02 15:02:03.692393,992.9,0.0305,0.0083,0.9631
2025-05-02 15:02:03.693005,992.9,0.0305,0.0083,0.9631
2025-05-02 15:02:03.999238,1006.0,0.0312,0.0063,0.9611
2025-05-02 15:02:04.293769,940.4,0.0297,0.0114,0.9702
2025-05-02 15:02:04.294267,940.4,0.0297,0.0114,0.9702
2025-05-02 15:02:04.590497,979.8,0.0285,0.009,0.9704
2025-05-02 15:02:04.590619,979.8,0.0285,0.009,0.9704
2025-05-02 15:02:04.880932,979.8,0.0334,0.0039,0.9831
2025-05-02 15:02:04.881188,979.8,0.0334,0.0039,0.9831
2025-05-02 15:02:05.193308,992.9,0.0339,0.0107,0.9819
2025-05-02 15:02:05.193584,992.9,0.0339,0.0107,0.9819
2025-05-02 15:02:05.532650,1006.0,0.0305,0.0083,0.9821
2025-05-02 15:02:05.532961,1006.0,0.0305,0.0083,0.9821
2025-05-02 15:02:05.779138,992.9,0.0373,0.0104,0.977
2025-05-02 15:02:05.779446,992.9,0.0373,0.0104,0.977
2025-05-02 15:02:06.391808,979.8,0.0373,0.0092,0.9645
2025-05-02 15:02:06.392396,979.8,0.0373,0.0092,0.9645
2025-05-02 15:02:06.676200,1006.0,0.0314,0.0087,0.979
2025-05-02 15:02:06.676887,1006.0,0.0314,0.0087,0.979
2025-05-02 15:02:06.993011,979.8,0.0363,0.0153,0.9614
2025-05-02 15:02:06.993293,979.8,0.0363,0.0153,0.9614
2025-05-02 15:02:07.291710,1006.0,0.029,0.0126,0.9736
2025-05-02 15:02:07.291927,1006.0,0.029,0.0126,0.9736
2025-05-02 15:02:07.583015,979.8,0.027,0.0136,0.9829
2025-05-02 15:02:07.583248,979.8,0.027,0.0136,0.9829
2025-05-02 15:02:07.591529,979.8,0.0339,0.0024,0.9833
2025-05-02 15:02:07.591773,979.8,0.0339,0.0024,0.9833
2025-05-02 15:02:07.878713,979.8,0.0285,0.0102,0.9748
2025-05-02 15:02:07.879300,979.8,0.0285,0.0102,0.9748
2025-05-02 15:02:08.190435,992.9,0.0278,0.0073,0.9638
2025-05-02 15:02:08.190577,992.9,0.0278,0.0073,0.9638
2025-05-02 15:02:08.492372,992.9,0.0397,0.0107,0.9689
2025-05-02 15:02:08.492709,992.9,0.0397,0.0107,0.9689
2025-05-02 15:02:08.781735,979.8,0.0317,0.0158,0.965
2025-05-02 15:02:08.782342,979.8,0.0317,0.0158,0.965
2025-05-02 15:02:09.093842,1006.0,0.0368,0.0151,0.9716
2025-05-02 15:02:09.693060,1006.0,0.0407,0.0151,0.9655
2025-05-02 15:02:09.693555,1006.0,0.0407,0.0151,0.9655
2025-05-02 15:02:10.187062,979.8,0.0292,0.0097,0.9755
2025-05-02 15:02:10.281516,979.8,0.0317,0.0087,0.978
2025-05-02 15:02:10.281687,979.8,0.0317,0.0087,0.978
2025-05-02 15:02:10.573389,966.7,0.0512,0.0197,0.9743
2025-05-02 15:02:10.573602,966.7,0.0512,0.0197,0.9743
2025-05-02 15:02:10.885790,966.7,0.038,0.0217,0.9755
2025-05-02 15:02:10.885962,966.7,0.038,0.0217,0.9755
2025-05-02 15:02:12.074519,992.9,0.0236,0.0,0.977
2025-05-02 15:02:12.075202,992.9,0.0236,0.0,0.977
2025-05-02 15:02:12.090570,1006.0,0.0773,0.1123,0.9794
2025-05-02 15:02:12.090819,1006.0,0.0773,0.1123,0.9794
2025-05-02 15:02:12.990218,953.6,0.3137,0.4545,0.6225
2025-05-02 15:02:12.990501,953.6,0.3137,0.4545,0.6225
2025-05-02 15:02:13.291545,966.7,0.4458,0.8942,0.3198
2025-05-02 15:02:13.291819,966.7,0.4458,0.8942,0.3198
2025-05-02 15:02:13.578067,953.6,0.4189,0.6906,0.2915
2025-05-02 15:02:13.578272,953.6,0.4189,0.6906,0.2915
2025-05-02 15:02:13.592714,927.3000000000001,0.4372,0.739,0.4196
2025-05-02 15:02:13.593004,927.3000000000001,0.4372,0.739,0.4196
2025-05-02 15:02:13.918363,914.2,0.4638,0.7717,0.4057
2025-05-02 15:02:13.991646,914.2,0.4284,0.6892,0.405
2025-05-02 15:02:13.992182,914.2,0.4284,0.6892,0.405
2025-05-02 15:02:14.089881,914.2,0.4284,0.6892,0.405
2025-05-02 15:02:14.090668,953.6,0.548,0.6459,0.3034
2025-05-02 15:02:14.090995,953.6,0.548,0.6459,0.3034
2025-05-02 15:02:14.184305,953.6,0.548,0.6459,0.3034
2025-05-02 15:02:14.184495,953.6,0.548,0.6459,0.3034
2025-05-02 15:02:14.191547,953.6,0.5937,0.5939,0.3251
2025-05-02 15:02:14.191872,953.6,0.5937,0.5939,0.3251
2025-05-02 15:02:14.333877,979.8,0.5065,0.7548,0.3066
2025-05-02 15:02:14.334122,979.8,0.5065,0.7548,0.3066
2025-05-02 15:02:14.490273,966.7,0.5729,0.6914,0.4291
2025-05-02 15:02:14.490487,966.7,0.5729,0.6914,0.4291
2025-05-02 15:02:14.537827,966.7,0.5729,0.6914,0.4291
2025-05-02 15:02:14.538002,966.7,0.5729,0.6914,0.4291
2025-05-02 15:02:14.673584,953.6,0.5244,0.4748,0.6538
2025-05-02 15:02:14.674018,953.6,0.5244,0.4748,0.6538
2025-05-02 15:02:14.674286,953.6,0.5244,0.4748,0.6538
2025-05-02 15:02:14.732178,953.6,1.3679,0.7812,0.2575
2025-05-02 15:02:14.732473,953.6,1.3679,0.7812,0.2575
2025-05-02 15:02:14.934728,979.8,0.9072,-0.03,0.4707
2025-05-02 15:02:14.939501,979.8,0.9711,0.0261,0.4667
2025-05-02 15:02:14.940237,979.8,0.9711,0.0261,0.4667
2025-05-02 15:02:14.979300,979.8,0.9711,0.0261,0.4667
2025-05-02 15:02:14.979557,979.8,0.9711,0.0261,0.4667
2025-05-02 15:02:15.136699,966.7,0.8029,-0.0383,0.5395
2025-05-02 15:02:15.136823,966.7,0.8029,-0.0383,0.5395
2025-05-02 15:02:15.291286,966.7,0.1882,-0.2041,-1.217
2025-05-02 15:02:15.291611,966.7,0.1882,-0.2041,-1.217
2025-05-02 15:02:15.385039,966.7,0.1882,-0.2041,-1.217
2025-05-02 15:02:15.385187,966.7,0.1882,-0.2041,-1.217
2025-05-02 15:02:15.392658,992.9,0.0092,-0.0148,1.0
2025-05-02 15:02:15.392837,992.9,0.0092,-0.0148,1.0
2025-05-02 15:02:15.504266,1006.0,0.0451,0.0256,0.9663
2025-05-02 15:02:15.533707,1006.0,0.0451,0.0256,0.9663
2025-05-02 15:02:15.534030,1006.0,0.0451,0.0256,0.9663
2025-05-02 15:02:15.575090,1006.0,0.0451,0.0256,0.9663
2025-05-02 15:02:15.575389,1006.0,0.0451,0.0256,0.9663
2025-05-02 15:02:15.590191,979.8,0.0305,0.0131,0.9797
2025-05-02 15:02:15.590495,979.8,0.0305,0.0131,0.9797
2025-05-02 15:02:15.779084,953.6,0.038,0.0217,0.9731
2025-05-02 15:02:15.779202,953.6,0.038,0.0217,0.9731
2025-05-02 15:02:15.935332,1019.0999999999999,0.0334,0.0036,0.9572
2025-05-02 15:02:15.935624,1019.0999999999999,0.0334,0.0036,0.9572
2025-05-02 15:02:15.990601,1006.0,0.0302,0.0073,0.9658
2025-05-02 15:02:15.990781,1006.0,0.0302,0.0073,0.9658
2025-05-02 15:02:16.037231,1006.0,0.0302,0.0073,0.9658
2025-05-02 15:02:16.037356,1006.0,0.0302,0.0073,0.9658
2025-05-02 15:02:16.091648,1006.0,0.0302,0.0073,0.9658
2025-05-02 15:02:16.092404,992.9,0.0322,0.0183,0.9628
2025-05-02 15:02:16.092816,992.9,0.0322,0.0183,0.9628
2025-05-02 15:02:16.232197,979.8,0.0375,0.0153,0.9687
2025-05-02 15:02:16.232509,979.8,0.0375,0.0153,0.9687
2025-05-02 15:02:16.390602,1019.0999999999999,0.0332,0.0144,0.9763
2025-05-02 15:02:16.390878,1019.0999999999999,0.0332,0.0144,0.9763
2025-05-02 15:02:16.441540,1019.0999999999999,0.0332,0.0144,0.9763
2025-05-02 15:02:16.441767,1019.0999999999999,0.0332,0.0144,0.9763
2025-05-02 15:02:16.490208,1019.0999999999999,0.041,0.0163,0.9645
2025-05-02 15:02:16.490335,1019.0999999999999,0.041,0.0163,0.9645
2025-05-02 15:02:16.534128,1019.0999999999999,0.041,0.0163,0.9645
2025-05-02 15:02:16.534332,1019.0999999999999,0.041,0.0163,0.9645
2025-05-02 15:02:16.591627,1006.0,0.0375,0.0236,0.9643
2025-05-02 15:02:16.591949,1006.0,0.0375,0.0236,0.9643
2025-05-02 15:02:16.638119,1006.0,0.0375,0.0236,0.9643
2025-05-02 15:02:16.638378,1006.0,0.0375,0.0236,0.9643
2025-05-02 15:02:16.690260,1006.0,0.0441,0.0185,0.9692
2025-05-02 15:02:16.690504,1006.0,0.0441,0.0185,0.9692
2025-05-02 15:02:16.792540,1006.0,0.0422,0.0,0.9973
2025-05-02 15:02:16.792858,1006.0,0.0422,0.0,0.9973
2025-05-02 15:02:16.840271,1006.0,0.0422,0.0,0.9973
2025-05-02 15:02:16.840417,1006.0,0.0422,0.0,0.9973
2025-05-02 15:02:16.890160,979.8,0.0434,0.0437,0.944
2025-05-02 15:02:16.890474,979.8,0.0434,0.0437,0.944
2025-05-02 15:02:17.182746,966.7,0.0292,0.0014,1.0129
2025-05-02 15:02:17.182955,966.7,0.0292,0.0014,1.0129
2025-05-02 15:02:17.238337,953.6,0.0319,0.0148,0.968
2025-05-02 15:02:17.238518,953.6,0.0319,0.0148,0.968
2025-05-02 15:02:17.428399,966.7,0.0432,0.017,0.978
2025-05-02 15:02:17.434884,966.7,0.0432,0.017,0.978
2025-05-02 15:02:17.435056,966.7,0.0432,0.017,0.978
2025-05-02 15:02:17.478024,966.7,0.0432,0.017,0.978
2025-05-02 15:02:17.478224,966.7,0.0432,0.017,0.978
2025-05-02 15:02:17.541594,992.9,0.041,0.0217,0.9738
2025-05-02 15:02:17.542017,992.9,0.041,0.0217,0.9738
2025-05-02 15:02:17.590154,992.9,0.0295,0.0148,0.9733
2025-05-02 15:02:17.590336,992.9,0.0295,0.0148,0.9733
2025-05-02 15:02:17.684146,992.9,0.0295,0.0148,0.9733
2025-05-02 15:02:17.684522,992.9,0.0295,0.0148,0.9733
2025-05-02 15:02:17.740518,992.9,0.0383,0.0224,0.9724
2025-05-02 15:02:17.740743,992.9,0.0383,0.0224,0.9724
2025-05-02 15:02:17.782895,992.9,0.0383,0.0224,0.9724
2025-05-02 15:02:17.783254,992.9,0.0383,0.0224,0.9724
2025-05-02 15:02:17.790220,992.9,0.0334,0.0205,0.979
2025-05-02 15:02:17.790394,992.9,0.0334,0.0205,0.979
2025-05-02 15:02:17.935409,979.8,0.0371,0.0148,0.9631
2025-05-02 15:02:17.935585,979.8,0.0371,0.0148,0.9631
2025-05-02 15:02:17.981684,979.8,0.0371,0.0148,0.9631
2025-05-02 15:02:17.981866,979.8,0.0371,0.0148,0.9631
2025-05-02 15:02:17.991340,979.8,0.0405,0.0202,0.9675
2025-05-02 15:02:17.991628,979.8,0.0405,0.0202,0.9675
2025-05-02 15:02:18.079081,979.8,0.0405,0.0202,0.9675
2025-05-02 15:02:18.079309,979.8,0.0405,0.0202,0.9675
2025-05-02 15:02:18.139598,966.7,0.0275,0.0124,0.9768
2025-05-02 15:02:18.139846,966.7,0.0275,0.0124,0.9768
2025-05-02 15:02:18.191338,966.7,0.0305,0.0163,0.9687
2025-05-02 15:02:18.191533,966.7,0.0305,0.0163,0.9687
2025-05-02 15:02:18.290308,966.7,0.0266,0.0146,0.9638
2025-05-02 15:02:18.290497,966.7,0.0266,0.0146,0.9638
2025-05-02 15:02:18.580673,927.3000000000001,0.0295,0.0239,0.9711
2025-05-02 15:02:18.580902,927.3000000000001,0.0295,0.0239,0.9711
2025-05-02 15:02:18.675380,953.6,0.0329,0.0163,0.9787
2025-05-02 15:02:18.675598,953.6,0.0329,0.0163,0.9787
2025-05-02 15:02:18.833901,953.6,0.0402,0.0173,0.9665
2025-05-02 15:02:18.834084,953.6,0.0402,0.0173,0.9665
2025-05-02 15:02:18.992394,940.4,0.0363,0.0119,0.9672
2025-05-02 15:02:18.992517,940.4,0.0363,0.0119,0.9672
2025-05-02 15:02:19.291118,940.4,0.0317,0.0371,0.968
2025-05-02 15:02:19.291296,940.4,0.0317,0.0371,0.968
2025-05-02 15:02:19.390056,966.7,0.0356,0.018,0.9663
2025-05-02 15:02:19.390349,966.7,0.0356,0.018,0.9663
2025-05-02 15:02:19.493111,966.7,0.0366,0.0173,0.9746
2025-05-02 15:02:19.493298,966.7,0.0366,0.0173,0.9746
2025-05-02 15:02:19.536579,966.7,0.0366,0.0173,0.9746
2025-05-02 15:02:19.536770,966.7,0.0366,0.0173,0.9746
2025-05-02 15:02:19.584054,966.7,0.0366,0.0173,0.9746
2025-05-02 15:02:19.584230,966.7,0.0366,0.0173,0.9746
2025-05-02 15:02:19.590201,953.6,0.0307,0.0178,0.9641
2025-05-02 15:02:19.590499,953.6,0.0307,0.0178,0.9641
2025-05-02 15:02:19.639445,953.6,0.0307,0.0178,0.9641
2025-05-02 15:02:19.639705,953.6,0.0307,0.0178,0.9641
2025-05-02 15:02:19.681876,953.6,0.0307,0.0178,0.9641
2025-05-02 15:02:19.682046,953.6,0.0307,0.0178,0.9641
2025-05-02 15:02:19.692612,966.7,0.0329,0.019,0.9719
2025-05-02 15:02:19.692817,966.7,0.0329,0.019,0.9719
2025-05-02 15:02:19.936517,940.4,0.0314,0.018,0.9641
2025-05-02 15:02:19.936848,940.4,0.0314,0.018,0.9641
2025-05-02 15:02:19.985017,940.4,0.0314,0.018,0.9641
2025-05-02 15:02:19.985273,940.4,0.0314,0.018,0.9641
2025-05-02 15:02:20.176786,953.6,0.0407,0.0097,0.9765
2025-05-02 15:02:20.176929,953.6,0.0407,0.0097,0.9765
2025-05-02 15:02:20.384306,966.7,0.0319,0.0568,1.0119
2025-05-02 15:02:20.384507,966.7,0.0319,0.0568,1.0119
2025-05-02 15:02:20.454540,940.4,0.059,-0.0187,0.9765
2025-05-02 15:02:20.454654,940.4,0.059,-0.0187,0.9765
2025-05-02 15:02:20.480718,940.4,0.059,-0.0187,0.9765
2025-05-02 15:02:20.480878,940.4,0.059,-0.0187,0.9765
2025-05-02 15:02:20.489987,940.4,0.0295,0.0336,0.9758
2025-05-02 15:02:20.490193,940.4,0.0295,0.0336,0.9758
2025-05-02 15:02:20.540527,940.4,0.0295,0.0336,0.9758
2025-05-02 15:02:20.540749,940.4,0.0295,0.0336,0.9758
2025-05-02 15:02:20.592514,927.3000000000001,0.0222,0.0153,0.9599
2025-05-02 15:02:20.592708,927.3000000000001,0.0222,0.0153,0.9599
2025-05-02 15:02:20.691923,979.8,0.031,0.0197,0.968
2025-05-02 15:02:20.692106,979.8,0.031,0.0197,0.968
2025-05-02 15:02:20.792575,1019.0999999999999,0.0388,0.0061,0.9775
2025-05-02 15:02:20.792789,1019.0999999999999,0.0388,0.0061,0.9775
2025-05-02 15:02:20.879000,1019.0999999999999,0.0388,0.0061,0.9775
2025-05-02 15:02:20.879166,1019.0999999999999,0.0388,0.0061,0.9775
2025-05-02 15:02:21.076378,979.8,0.0246,0.0209,0.9785
2025-05-02 15:02:21.076632,979.8,0.0246,0.0209,0.9785
2025-05-02 15:02:21.090531,1019.0999999999999,0.0217,0.0148,0.9804
2025-05-02 15:02:21.090815,1019.0999999999999,0.0217,0.0148,0.9804
2025-05-02 15:02:21.343288,992.9,0.0383,0.0273,0.9687
2025-05-02 15:02:21.343669,992.9,0.0383,0.0273,0.9687
2025-05-02 15:02:21.383277,992.9,0.0383,0.0273,0.9687
2025-05-02 15:02:21.383445,992.9,0.0383,0.0273,0.9687
2025-05-02 15:02:21.542653,979.8,0.0285,0.0007,0.965
2025-05-02 15:02:21.542926,979.8,0.0285,0.0007,0.965
2025-05-02 15:02:21.636938,992.9,0.0253,0.0126,0.9697
2025-05-02 15:02:21.637110,992.9,0.0253,0.0126,0.9697
2025-05-02 15:02:21.831724,940.4,0.0158,0.0146,0.9704
2025-05-02 15:02:21.831969,940.4,0.0158,0.0146,0.9704
2025-05-02 15:02:21.982253,940.4,0.0385,0.0212,0.9838
2025-05-02 15:02:21.982585,940.4,0.0385,0.0212,0.9838
2025-05-02 15:02:22.037750,927.3000000000001,0.029,-0.0112,0.9921
2025-05-02 15:02:22.038049,927.3000000000001,0.029,-0.0112,0.9921
2025-05-02 15:02:22.292654,940.4,0.0278,0.039,0.9584
2025-05-02 15:02:22.292916,940.4,0.0278,0.039,0.9584
2025-05-02 15:02:22.633103,992.9,0.0314,0.0163,0.9746
2025-05-02 15:02:22.633400,992.9,0.0314,0.0163,0.9746
2025-05-02 15:02:22.676456,992.9,0.0314,0.0163,0.9746
2025-05-02 15:02:22.676579,992.9,0.0314,0.0163,0.9746
2025-05-02 15:02:22.792585,966.7,0.0332,0.0249,0.9643
2025-05-02 15:02:22.792800,966.7,0.0332,0.0249,0.9643
2025-05-02 15:02:22.883970,966.7,0.0332,0.0249,0.9643
2025-05-02 15:02:22.884238,966.7,0.0332,0.0249,0.9643
2025-05-02 15:02:22.940561,979.8,0.0356,0.0217,0.9687
2025-05-02 15:02:23.031898,966.7,0.0317,0.0185,0.9777
2025-05-02 15:02:23.032152,966.7,0.0317,0.0185,0.9777
2025-05-02 15:02:23.072936,966.7,0.0317,0.0185,0.9777
2025-05-02 15:02:23.073160,966.7,0.0317,0.0185,0.9777
2025-05-02 15:02:23.091291,979.8,0.0397,0.0195,0.9768
2025-05-02 15:02:23.091518,979.8,0.0397,0.0195,0.9768
2025-05-02 15:02:23.380243,992.9,0.0322,0.0185,0.9694
2025-05-02 15:02:23.380626,992.9,0.0322,0.0185,0.9694
2025-05-02 15:02:23.482753,992.9,0.0368,0.0273,0.9655
2025-05-02 15:02:23.482949,992.9,0.0368,0.0273,0.9655
2025-05-02 15:02:23.534757,966.7,0.03,0.0187,0.9611
2025-05-02 15:02:23.534996,966.7,0.03,0.0187,0.9611
2025-05-02 15:02:23.590723,940.4,0.0214,0.0283,0.9968
2025-05-02 15:02:23.590931,940.4,0.0214,0.0283,0.9968
2025-05-02 15:02:23.679391,940.4,0.0214,0.0283,0.9968
2025-05-02 15:02:23.679649,940.4,0.0214,0.0283,0.9968
2025-05-02 15:02:23.737420,927.3000000000001,0.0217,0.017,1.0004
2025-05-02 15:02:23.737558,927.3000000000001,0.0217,0.017,1.0004
2025-05-02 15:02:23.892330,966.7,0.0344,-0.0148,0.9174
2025-05-02 15:02:23.892516,966.7,0.0344,-0.0148,0.9174
2025-05-02 15:02:23.984267,966.7,0.0344,-0.0148,0.9174
2025-05-02 15:02:23.984550,966.7,0.0344,-0.0148,0.9174
2025-05-02 15:02:24.040159,953.6,0.0566,0.1706,0.9187
2025-05-02 15:02:24.040376,953.6,0.0566,0.1706,0.9187
2025-05-02 15:02:24.081473,953.6,0.0566,0.1706,0.9187
2025-05-02 15:02:24.081691,953.6,0.0566,0.1706,0.9187
2025-05-02 15:02:24.092660,966.7,0.0454,0.008,0.9848
2025-05-02 15:02:24.092802,966.7,0.0454,0.008,0.9848
2025-05-02 15:02:24.133954,966.7,0.0454,0.008,0.9848
2025-05-02 15:02:24.134182,966.7,0.0454,0.008,0.9848
2025-05-02 15:02:24.180391,966.7,0.0454,0.008,0.9848
2025-05-02 15:02:24.180579,966.7,0.0454,0.008,0.9848
2025-05-02 15:02:24.191433,979.8,0.0395,0.0202,0.967
2025-05-02 15:02:24.191648,979.8,0.0395,0.0202,0.967
2025-05-02 15:02:24.377034,953.6,0.0373,0.0283,0.9641
2025-05-02 15:02:24.377360,953.6,0.0373,0.0283,0.9641
2025-05-02 15:02:24.391719,940.4,0.0332,0.0251,0.967
2025-05-02 15:02:24.392084,940.4,0.0332,0.0251,0.967
2025-05-02 15:02:24.579284,953.6,0.0378,0.0234,0.9621
2025-05-02 15:02:24.579517,953.6,0.0378,0.0234,0.9621
2025-05-02 15:02:24.791150,940.4,0.0385,0.0314,0.9619
2025-05-02 15:02:24.791358,940.4,0.0385,0.0314,0.9619
2025-05-02 15:02:25.290091,979.8,0.0349,0.0129,0.9699
2025-05-02 15:02:25.290326,979.8,0.0349,0.0129,0.9699
