timestamp,pressure,accel_x,accel_y,accel_z,gyro_x,gyro_y,gyro_z
24:31.2,1268.2,0.4541,-0.3615,-0.9018,0,0,0
24:31.2,1150.3,0.0136,0.0063,0.9809,0,0,0
24:31.2,1150.3,0.0136,0.0063,0.9809,0,0,0
24:31.5,1150.3,-0.0065,0.0073,0.9575,0,0,0
24:31.5,1150.3,-0.0065,0.0073,0.9575,0,0,0
24:32.1,1189.6,-0.018,0.0163,0.988,0,0,0
24:32.1,1189.6,-0.018,0.0163,0.988,0,0,0
24:32.4,1163.4,0.0134,0.0571,0.9641,0,0,0
24:32.4,1163.4,0.0134,0.0571,0.9641,0,0,0
24:32.7,1163.4,-0.0351,-0.0212,0.9733,0,0,0
24:32.7,1163.4,-0.0351,-0.0212,0.9733,0,0,0
24:33.0,1189.6,-0.1032,-0.0634,0.9953,0,0,0
24:33.0,1189.6,-0.1032,-0.0634,0.9953,0,0,0
24:33.3,1163.4,-0.0944,-0.061,0.9694,0,0,0
24:33.3,1163.4,-0.0944,-0.061,0.9694,0,0,0
24:33.9,1176.5,-0.0429,-0.0266,0.9746,0,0,0
24:33.9,1176.5,-0.0429,-0.0266,0.9746,0,0,0
24:34.2,1176.5,0.0063,-0.01,0.9602,0,0,0
24:34.2,1176.5,0.0063,-0.01,0.9602,0,0,0
24:34.5,1150.3,0.0024,-0.0048,0.9814,0,0,0
24:34.5,1150.3,0.0024,-0.0048,0.9814,0,0,0
24:35.1,1163.4,0.0073,-0.0166,0.9865,0,0,0
24:35.1,1163.4,0.0073,-0.0166,0.9865,0,0,0
24:35.4,1163.4,0.0449,-0.0476,0.9592,0,0,0
24:35.4,1163.4,0.0449,-0.0476,0.9592,0,0,0
24:35.7,1137.2,-0.007,-0.0471,0.9743,0,0,0
24:35.7,1137.2,-0.007,-0.0471,0.9743,0,0,0
24:36.3,1150.3,-0.0258,-0.0375,0.9833,0,0,0
24:36.3,1150.3,-0.0258,-0.0375,0.9833,0,0,0
24:36.5,1163.4,-0.0034,-0.041,0.968,0,0,0
24:36.5,1163.4,-0.0034,-0.041,0.968,0,0,0
24:37.1,1176.5,-0.05,-0.0273,0.9719,0,0,0
24:37.1,1124,-0.0568,-0.0295,0.9855,0,0,0
24:37.1,1124,-0.0568,-0.0295,0.9855,0,0,0
24:37.4,1137.2,0.0046,-0.0341,0.9799,0,0,0
24:37.4,1137.2,0.0046,-0.0341,0.9799,0,0,0
24:37.7,1137.2,0.0187,-0.0024,0.9589,0,0,0
24:37.7,1137.2,0.0187,-0.0024,0.9589,0,0,0
24:37.7,1150.3,-0.0141,-0.0217,0.9812,0,0,0
24:37.7,1150.3,-0.0141,-0.0217,0.9812,0,0,0
24:38.0,1110.9,0.0102,0.0112,0.9487,0,0,0
24:38.0,1110.9,0.0102,0.0112,0.9487,0,0,0
24:38.0,1150.3,-0.0175,-0.0466,0.9714,0,0,0
24:38.0,1150.3,-0.0175,-0.0466,0.9714,0,0,0
24:38.3,1176.5,-0.0117,-0.0095,0.958,0,0,0
24:38.3,1176.5,-0.0117,-0.0095,0.958,0,0,0
24:38.6,1163.4,-0.0092,-0.0124,0.9636,0,0,0
24:38.6,1163.4,-0.0092,-0.0124,0.9636,0,0,0
24:38.6,1163.4,-0.0268,-0.0095,0.9672,0,0,0
24:38.6,1163.4,-0.0268,-0.0095,0.9672,0,0,0
24:38.9,1137.2,-0.0144,-0.0195,0.9672,0,0,0
24:38.9,1137.2,-0.0144,-0.0195,0.9672,0,0,0
24:39.2,1150.3,-0.0163,-0.0129,0.979,0,0,0
24:39.2,1150.3,-0.0163,-0.0129,0.979,0,0,0
24:39.2,1150.3,-0.0051,-0.0234,0.979,0,0,0
24:39.2,1150.3,-0.0051,-0.0234,0.979,0,0,0
24:39.3,1150.3,-0.0051,-0.0234,0.979,0,0,0
24:39.3,1150.3,-0.0051,-0.0234,0.979,0,0,0
24:39.6,1150.3,-0.0009,-0.0053,0.9711,0,0,0
24:39.6,1150.3,-0.0009,-0.0053,0.9711,0,0,0
24:40.2,1163.4,-0.0517,0.062,0.9489,0,0,0
24:40.2,1163.4,-0.0517,0.062,0.9489,0,0,0
24:40.5,1150.3,-0.0163,-0.0102,0.9606,0,0,0
24:40.5,1150.3,-0.0163,-0.0102,0.9606,0,0,0
24:40.8,1124,-0.0483,-0.0153,0.9746,0,0,0
24:40.8,1124,-0.0483,-0.0153,0.9746,0,0,0
24:41.1,1163.4,-0.0131,-0.0012,0.9699,0,0,0
24:41.1,1163.4,-0.0131,-0.0012,0.9699,0,0,0
24:41.4,1137.2,-0.135,0.5842,1.3942,0,0,0
24:41.4,1137.2,-0.135,0.5842,1.3942,0,0,0
24:42.0,1137.2,-2,0.747,-0.5922,0,0,0
24:42.0,1137.2,-2,0.747,-0.5922,0,0,0
24:42.3,1110.9,0.4055,-0.0478,-2,0,0,0
24:42.3,1110.9,0.4055,-0.0478,-2,0,0,0
24:42.9,1084.7,-0.7768,-1.114,-0.6833,0,0,0
24:42.9,1084.7,-0.7768,-1.114,-0.6833,0,0,0
24:43.2,1124,-0.2861,-0.0969,-0.7062,0,0,0
24:43.2,1124,-0.2861,-0.0969,-0.7062,0,0,0
24:43.5,1110.9,-1.3383,-0.7604,-1.507,0,0,0
24:43.5,1110.9,-1.3383,-0.7604,-1.507,0,0,0
24:43.8,1137.2,-0.2016,-0.7211,-0.7995,0,0,0
24:43.8,1137.2,-0.2016,-0.7211,-0.7995,0,0,0
24:44.1,1058.5,0.4323,0.2297,-1.5053,0,0,0
24:44.1,1058.5,0.4323,0.2297,-1.5053,0,0,0
24:44.4,1110.9,-0.9321,0.6428,0.4487,0,0,0
24:44.4,1110.9,-0.9321,0.6428,0.4487,0,0,0
24:44.7,1124,1.2763,1.3483,-0.7331,0,0,0
24:44.7,1124,1.2763,1.3483,-0.7331,0,0,0
24:45.0,1110.9,-1.145,-0.7268,-1.7812,0,0,0
24:45.0,1110.9,-1.145,-0.7268,-1.7812,0,0,0
24:45.3,1110.9,0.2287,-1.5053,-0.8178,0,0,0
24:45.3,1110.9,0.2287,-1.5053,-0.8178,0,0,0
24:45.6,1124,-0.9597,0.1337,-1.9213,0,0,0
24:45.6,1124,-0.9597,0.1337,-1.9213,0,0,0
24:45.9,1097.8,0.3591,1.4084,0.0336,0,0,0
24:45.9,1097.8,0.3591,1.4084,0.0336,0,0,0
24:46.2,1084.7,0.2915,1.9333,-0.8898,0,0,0
24:46.2,1084.7,0.2915,1.9333,-0.8898,0,0,0
24:46.4,1110.9,-2,-0.6518,-1.2575,0,0,0
24:46.4,1110.9,-2,-0.6518,-1.2575,0,0,0
24:46.4,1084.7,-0.9301,-2,-0.9877,0,0,0
24:46.4,1084.7,-0.9301,-2,-0.9877,0,0,0
24:46.5,1084.7,-0.9301,-2,-0.9877,0,0,0
24:46.5,1084.7,-0.9301,-2,-0.9877,0,0,0
24:47.4,1097.8,0.894,1.9999,-1.3032,0,0,0
24:47.4,1097.8,0.894,1.9999,-1.3032,0,0,0
24:47.7,1124,0.0043,-0.0935,-1.0988,0,0,0
24:47.7,1124,0.0043,-0.0935,-1.0988,0,0,0
24:48.3,1176.5,-1.3171,-0.4519,-0.8425,0,0,0
24:48.3,1176.5,-1.3171,-0.4519,-0.8425,0,0,0
24:48.6,1124,-0.9985,-1.5788,-1.2524,0,0,0
24:48.6,1124,-0.9985,-1.5788,-1.2524,0,0,0
24:48.9,1058.5,1.0522,-0.8962,-0.8457,0,0,0
24:48.9,1058.5,1.0522,-0.8962,-0.8457,0,0,0
24:49.5,1110.9,0.7055,0.8369,-2,0,0,0
24:49.5,1110.9,0.7055,0.8369,-2,0,0,0
24:49.8,1150.3,-1.2863,-0.6672,-1.1752,0,0,0
24:49.8,1150.3,-1.2863,-0.6672,-1.1752,0,0,0
24:50.4,1097.8,0.6108,0.2746,-0.4084,0,0,0
24:50.4,1097.8,0.6108,0.2746,-0.4084,0,0,0
24:51.0,1110.9,0.5124,-0.8527,-0.1928,0,0,0
24:51.0,1110.9,0.226,0.9318,0.8676,0,0,0
24:51.0,1110.9,0.226,0.9318,0.8676,0,0,0
24:51.3,1097.8,-0.2453,0.1662,0.9521,0,0,0
24:51.3,1097.8,-0.2453,0.1662,0.9521,0,0,0
24:51.6,1163.4,0.1701,0.1064,0.9782,0,0,0
24:51.6,1163.4,0.1701,0.1064,0.9782,0,0,0
24:51.9,1176.5,-0.0744,-0.082,0.9775,0,0,0
24:51.9,1176.5,-0.0744,-0.082,0.9775,0,0,0
24:52.2,1124,0.0253,-0.0864,1.0834,0,0,0
24:52.2,1124,0.0253,-0.0864,1.0834,0,0,0
24:52.5,1137.2,-0.0947,-0.0969,0.9758,0,0,0
24:52.5,1137.2,-0.0947,-0.0969,0.9758,0,0,0
24:53.1,1150.3,-0.0776,-0.0561,0.9562,0,0,0
24:53.1,1150.3,-0.0776,-0.0561,0.9562,0,0,0
24:53.4,1176.5,-0.1115,-0.0263,0.9577,0,0,0
24:53.4,1176.5,-0.1115,-0.0263,0.9577,0,0,0
24:53.7,1176.5,-0.0961,-0.0573,0.9584,0,0,0
24:53.7,1176.5,-0.0961,-0.0573,0.9584,0,0,0
24:54.0,1150.3,-0.0598,-0.0515,0.9831,0,0,0
24:54.0,1150.3,-0.0598,-0.0515,0.9831,0,0,0
24:54.3,1124,-0.0925,-0.0527,0.9489,0,0,0
24:54.3,1124,-0.0925,-0.0527,0.9489,0,0,0
24:54.9,1150.3,-0.0998,-0.0141,0.9475,0,0,0
24:54.9,1150.3,-0.0998,-0.0141,0.9475,0,0,0
24:55.5,1137.2,-0.0476,-0.0297,0.968,0,0,0
24:55.5,1137.2,-0.0476,-0.0297,0.968,0,0,0
24:55.8,1137.2,-0.0632,-0.0478,0.9516,0,0,0
24:55.8,1137.2,-0.0632,-0.0478,0.9516,0,0,0
24:56.1,1163.4,-0.0944,-0.0351,0.9619,0,0,0
24:56.1,1163.4,-0.0944,-0.0351,0.9619,0,0,0
24:56.4,1163.4,-0.0649,-0.0402,0.9663,0,0,0
24:56.4,1163.4,-0.0649,-0.0402,0.9663,0,0,0
24:56.4,1163.4,-0.069,-0.0297,0.9624,0,0,0
24:56.4,1163.4,-0.069,-0.0297,0.9624,0,0,0
24:56.7,1176.5,-0.0422,-0.0329,0.966,0,0,0
24:56.7,1176.5,-0.0422,-0.0329,0.966,0,0,0
24:57.0,1189.6,-0.0844,-0.0524,0.9692,0,0,0
24:57.0,1189.6,-0.0844,-0.0524,0.9692,0,0,0
24:57.3,1137.2,-0.0549,-0.0344,0.9731,0,0,0
24:57.3,1137.2,-0.0549,-0.0344,0.9731,0,0,0
24:57.9,1150.3,-0.0668,-0.0539,0.9777,0,0,0
24:57.9,1150.3,-0.0668,-0.0539,0.9777,0,0,0
24:58.2,1176.5,-0.0798,-0.0463,0.9694,0,0,0
24:58.2,1176.5,-0.0798,-0.0463,0.9694,0,0,0
24:58.5,1163.4,-0.0825,-0.0441,0.9731,0,0,0
24:58.5,1163.4,-0.0825,-0.0441,0.9731,0,0,0
24:58.8,1163.4,-0.0895,-0.0434,0.9768,0,0,0
24:58.8,1163.4,-0.0895,-0.0434,0.9768,0,0,0
24:59.1,1150.3,-0.0986,-0.0544,0.968,0,0,0
24:59.1,1150.3,-0.0986,-0.0544,0.968,0,0,0
24:59.4,1163.4,-0.1254,-0.0485,0.9614,0,0,0
24:59.4,1163.4,-0.1254,-0.0485,0.9614,0,0,0
24:59.7,1163.4,-0.08,-0.0473,0.9575,0,0,0
24:59.7,1163.4,-0.08,-0.0473,0.9575,0,0,0
25:00.2,1163.4,-0.0576,-0.0573,0.976,0,0,0
25:00.2,1163.4,-0.0576,-0.0573,0.976,0,0,0
25:00.3,1163.4,-0.0576,-0.0573,0.976,0,0,0
25:00.3,1163.4,-0.0576,-0.0573,0.976,0,0,0
25:00.6,1137.2,-0.0834,-0.0937,0.987,0,0,0
25:00.6,1137.2,-0.0834,-0.0937,0.987,0,0,0
25:00.9,1176.5,-0.2753,-0.1452,0.9697,0,0,0
25:00.9,1176.5,-0.2753,-0.1452,0.9697,0,0,0
25:01.2,1215.8,-0.1997,0.1213,0.9011,0,0,0
25:01.2,1215.8,-0.1997,0.1213,0.9011,0,0,0
25:01.5,1150.3,0.1435,-0.0971,0.8225,0,0,0
25:01.5,1150.3,0.1435,-0.0971,0.8225,0,0,0
25:01.8,1176.5,-0.2324,0.1416,1.0297,0,0,0
25:01.8,1176.5,-0.2324,0.1416,1.0297,0,0,0
25:02.1,1150.3,0.155,0.184,1.1198,0,0,0
25:02.1,1150.3,0.155,0.184,1.1198,0,0,0
25:02.4,1163.4,0.1535,-0.0087,1.0327,0,0,0
25:02.4,1163.4,0.1535,-0.0087,1.0327,0,0,0
25:02.7,1150.3,-0.1293,0.0004,1.0122,0,0,0
25:02.7,1150.3,-0.1293,0.0004,1.0122,0,0,0
25:03.0,1150.3,0.1567,-0.176,0.927,0,0,0
25:03.0,1150.3,0.1567,-0.176,0.927,0,0,0
25:03.6,1163.4,-0.0478,-0.0371,0.9091,0,0,0
25:03.6,1163.4,-0.0478,-0.0371,0.9091,0,0,0
25:03.9,1150.3,0.0095,-0.0598,0.9648,0,0,0
25:03.9,1150.3,0.0095,-0.0598,0.9648,0,0,0
25:04.2,1189.6,-0.2185,-0.0014,0.861,0,0,0
25:04.2,1189.6,-0.2185,-0.0014,0.861,0,0,0
25:04.5,1176.5,-0.1589,0.0539,0.9155,0,0,0
25:04.5,1176.5,-0.1589,0.0539,0.9155,0,0,0
25:05.1,1176.5,-0.1345,-0.027,1.0332,0,0,0
25:05.1,1176.5,-0.1345,-0.027,1.0332,0,0,0
25:05.7,1176.5,0.1545,0.0012,0.9619,0,0,0
25:05.7,1176.5,0.1545,0.0012,0.9619,0,0,0
25:06.0,1176.5,-0.0676,0.0727,0.9191,0,0,0
25:06.0,1176.5,-0.0676,0.0727,0.9191,0,0,0
25:06.3,1137.2,-0.091,-0.1801,0.9291,0,0,0
25:06.3,1137.2,-0.091,-0.1801,0.9291,0,0,0
25:06.6,1202.7,-0.1728,-0.0239,0.9145,0,0,0
25:06.6,1202.7,-0.1728,-0.0239,0.9145,0,0,0
25:06.9,1137.2,-0.2448,0.0051,0.9228,0,0,0
25:06.9,1137.2,-0.2448,0.0051,0.9228,0,0,0
25:07.5,1176.5,-0.027,-0.0532,0.9257,0,0,0
25:07.5,1176.5,-0.027,-0.0532,0.9257,0,0,0
25:07.8,1137.2,-0.0156,-0.0354,0.9206,0,0,0
25:07.8,1137.2,-0.0156,-0.0354,0.9206,0,0,0
25:08.4,1163.4,0.1374,-0.0754,0.9714,0,0,0
25:08.4,1163.4,0.1374,-0.0754,0.9714,0,0,0
25:08.7,1150.3,0.1347,-0.0256,1.0095,0,0,0
25:08.7,1150.3,0.1347,-0.0256,1.0095,0,0,0
25:09.0,1150.3,0.0458,-0.0249,1.017,0,0,0
25:09.0,1150.3,0.0458,-0.0249,1.017,0,0,0
25:09.3,1189.6,0.0363,-0.0361,1.0034,0,0,0
25:09.3,1189.6,0.0363,-0.0361,1.0034,0,0,0
25:09.6,1163.4,-0.0585,-0.0061,1.009,0,0,0
25:09.6,1163.4,-0.0585,-0.0061,1.009,0,0,0
25:09.9,1163.4,-0.1164,-0.0864,1.0603,0,0,0
25:09.9,1163.4,-0.1164,-0.0864,1.0603,0,0,0
25:10.2,1137.2,0.0764,-0.038,1.0246,0,0,0
25:10.2,1137.2,0.0764,-0.038,1.0246,0,0,0
25:10.5,1176.5,0.2058,-0.0466,0.9663,0,0,0
25:10.5,1176.5,0.2058,-0.0466,0.9663,0,0,0
25:11.7,1137.2,-0.0541,0.0458,0.9506,0,0,0
25:11.7,1124,-0.0817,-0.0395,0.9177,0,0,0
25:11.7,1124,-0.0817,-0.0395,0.9177,0,0,0
25:12.3,1176.5,-0.135,-0.0759,0.9047,0,0,0
25:12.3,1176.5,-0.135,-0.0759,0.9047,0,0,0
25:12.6,1176.5,-0.059,-0.0742,0.9511,0,0,0
25:12.6,1176.5,-0.059,-0.0742,0.9511,0,0,0
25:13.2,1163.4,-0.103,0.0576,0.9519,0,0,0
25:13.2,1163.4,-0.103,0.0576,0.9519,0,0,0
25:13.5,1150.3,-0.1079,0.0012,0.956,0,0,0
25:13.5,1150.3,-0.1079,0.0012,0.956,0,0,0
25:13.8,1176.5,-0.1035,0.008,0.9377,0,0,0
25:13.8,1176.5,-0.1035,0.008,0.9377,0,0,0
25:14.1,1124,-0.0964,-0.0136,0.9792,0,0,0
25:14.1,1124,-0.0964,-0.0136,0.9792,0,0,0
25:14.4,1189.6,-0.143,-0.02,0.9443,0,0,0
25:14.4,1189.6,-0.143,-0.02,0.9443,0,0,0
25:15.0,1176.5,-0.1108,0.007,0.9548,0,0,0
25:15.0,1176.5,-0.1108,0.007,0.9548,0,0,0
25:15.3,1163.4,-0.0717,0.0158,0.967,0,0,0
25:15.3,1163.4,-0.0717,0.0158,0.967,0,0,0
25:15.8,1150.3,-0.1289,-0.0068,0.946,0,0,0
25:15.8,1150.3,-0.1289,-0.0068,0.946,0,0,0
25:16.1,1150.3,-0.1057,-0.0371,0.9685,0,0,0
25:16.1,1150.3,-0.1057,-0.0371,0.9685,0,0,0
25:16.4,1176.5,-0.0698,-0.0104,0.9689,0,0,0
25:16.4,1176.5,-0.0698,-0.0104,0.9689,0,0,0
25:16.7,1124,-0.1308,-0.0224,0.9599,0,0,0
25:16.7,1124,-0.1308,-0.0224,0.9599,0,0,0
25:17.0,1189.6,-0.1071,-0.0549,0.9816,0,0,0
25:17.0,1189.6,-0.1071,-0.0549,0.9816,0,0,0
25:17.3,1189.6,-0.0737,0.0173,0.9528,0,0,0
25:17.3,1189.6,-0.0737,0.0173,0.9528,0,0,0
25:17.3,1176.5,-0.09,-0.0151,0.9531,0,0,0
25:17.3,1176.5,-0.09,-0.0151,0.9531,0,0,0
25:17.9,1150.3,-0.1132,-0.0236,0.9733,0,0,0
25:17.9,1150.3,-0.1132,-0.0236,0.9733,0,0,0
25:17.9,1150.3,-0.103,-0.0253,0.9487,0,0,0
25:17.9,1150.3,-0.103,-0.0253,0.9487,0,0,0
25:18.2,1189.6,-0.0854,-0.0063,0.9653,0,0,0
25:18.2,1189.6,-0.0854,-0.0063,0.9653,0,0,0
25:18.2,1163.4,-0.1237,-0.0026,0.968,0,0,0
25:18.2,1163.4,-0.1237,-0.0026,0.968,0,0,0
25:18.5,1163.4,-0.1076,-0.0129,0.9487,0,0,0
25:18.5,1163.4,-0.1076,-0.0129,0.9487,0,0,0
25:18.5,1150.3,-0.0737,-0.0139,0.9558,0,0,0
25:18.5,1150.3,-0.0737,-0.0139,0.9558,0,0,0
25:19.1,1137.2,-0.0949,-0.0078,0.975,0,0,0
25:19.1,1176.5,-0.1105,-0.0222,0.9694,0,0,0
25:19.1,1176.5,-0.1105,-0.0222,0.9694,0,0,0
25:19.4,1189.6,-0.145,0,0.9538,0,0,0
25:19.4,1189.6,-0.145,0,0.9538,0,0,0
25:19.7,1150.3,-0.0749,0.0185,0.9589,0,0,0
25:19.7,1150.3,-0.0749,0.0185,0.9589,0,0,0
25:20.0,1150.3,-0.0354,0.0078,0.9841,0,0,0
25:20.0,1150.3,-0.0354,0.0078,0.9841,0,0,0
25:20.0,1110.9,-0.1054,-0.0043,0.9658,0,0,0
25:20.0,1110.9,-0.1054,-0.0043,0.9658,0,0,0
25:20.2,1137.2,-0.1535,-0.0339,0.9482,0,0,0
25:20.2,1137.2,-0.1535,-0.0339,0.9482,0,0,0
25:20.2,1150.3,-0.0986,-0.0334,0.9731,0,0,0
25:20.2,1150.3,-0.0986,-0.0334,0.9731,0,0,0
25:20.4,1163.4,-0.1079,-0.0131,0.9592,0,0,0
25:20.4,1163.4,-0.1079,-0.0131,0.9592,0,0,0
25:20.7,1137.2,-0.1166,0.0092,0.9523,0,0,0
25:20.7,1137.2,-0.1166,0.0092,0.9523,0,0,0
25:21.0,1137.2,-0.1325,-0.01,0.9494,0,0,0
25:21.0,1137.2,-0.1325,-0.01,0.9494,0,0,0
25:21.3,1163.4,-0.0512,0.0046,0.9665,0,0,0
25:21.3,1163.4,-0.0512,0.0046,0.9665,0,0,0
25:21.6,1163.4,-0.134,-0.0578,0.9587,0,0,0
25:21.6,1163.4,-0.134,-0.0578,0.9587,0,0,0
25:21.9,1137.2,-0.0908,-0.0246,0.976,0,0,0
25:21.9,1137.2,-0.0908,-0.0246,0.976,0,0,0
25:22.2,1202.7,-0.0649,0.0087,0.9689,0,0,0
25:22.2,1202.7,-0.0649,0.0087,0.9689,0,0,0
25:22.8,1137.2,-0.1079,-0.0373,0.9589,0,0,0
25:22.8,1137.2,-0.1079,-0.0373,0.9589,0,0,0
25:23.1,1150.3,-0.0917,-0.0239,0.9853,0,0,0
25:23.1,1150.3,-0.0917,-0.0239,0.9853,0,0,0
25:23.4,1124,-0.1145,-0.0134,0.9619,0,0,0
25:23.4,1124,-0.1145,-0.0134,0.9619,0,0,0
25:23.7,1137.2,-0.0893,-0.0234,0.9514,0,0,0
25:23.7,1137.2,-0.0893,-0.0234,0.9514,0,0,0
25:24.9,1176.5,-0.132,-0.0336,0.9558,0,0,0
25:24.9,1176.5,-0.132,-0.0336,0.9558,0,0,0
25:25.2,1137.2,-0.1145,-0.0524,0.9645,0,0,0
25:25.2,1137.2,-0.1145,-0.0524,0.9645,0,0,0
25:26.1,1176.5,-0.1142,-0.0429,0.9455,0,0,0
25:26.1,1163.4,-0.0712,-0.0683,0.9663,0,0,0
25:26.1,1163.4,-0.0712,-0.0683,0.9663,0,0,0
25:26.4,1150.3,-0.0895,-0.0212,0.9499,0,0,0
25:26.4,1150.3,-0.0895,-0.0212,0.9499,0,0,0
25:26.4,1150.3,-0.0895,-0.0212,0.9499,0,0,0
25:26.4,1150.3,-0.0895,-0.0212,0.9499,0,0,0
25:26.4,1150.3,-0.1015,-0.0444,0.9558,0,0,0
25:26.4,1150.3,-0.1015,-0.0444,0.9558,0,0,0
25:27.0,1176.5,-0.1342,-0.048,0.9543,0,0,0
25:27.0,1176.5,-0.1342,-0.048,0.9543,0,0,0
25:27.3,1137.2,-0.1169,-0.0466,0.9692,0,0,0
25:27.3,1137.2,-0.1169,-0.0466,0.9692,0,0,0
25:28.2,1163.4,-0.1052,-0.052,0.9667,0,0,0
25:28.2,1163.4,-0.1052,-0.052,0.9667,0,0,0
25:31.2,1176.5,-0.1145,-0.0361,0.9565,0,0,0
25:31.2,1176.5,-0.1145,-0.0361,0.9565,0,0,0
25:32.6,1110.9,-0.132,-0.0153,0.9731,0,0,0
25:32.6,1110.9,-0.132,-0.0153,0.9731,0,0,0
25:32.7,1110.9,-0.1706,-0.0405,0.9309,0,0,0
25:32.7,1110.9,-0.1706,-0.0405,0.9309,0,0,0
25:32.7,1110.9,-0.1706,-0.0405,0.9309,0,0,0
25:32.7,1110.9,-0.1706,-0.0405,0.9309,0,0,0
25:32.8,1150.3,-0.0852,0.0012,0.9768,0,0,0
25:32.8,1150.3,-0.0852,0.0012,0.9768,0,0,0
25:33.1,1150.3,-0.0971,-0.01,0.9523,0,0,0
25:33.1,1150.3,-0.0971,-0.01,0.9523,0,0,0
25:33.1,1150.3,-0.1791,-0.0551,0.9433,0,0,0
25:33.1,1150.3,-0.1791,-0.0551,0.9433,0,0,0
25:33.2,1150.3,-0.1791,-0.0551,0.9433,0,0,0
25:33.2,1150.3,-0.1791,-0.0551,0.9433,0,0,0
25:33.4,1124,-0.176,-0.0397,0.926,0,0,0
25:33.4,1124,-0.176,-0.0397,0.926,0,0,0
25:33.5,1137.2,-0.1416,-0.0729,0.9755,0,0,0
25:33.5,1137.2,-0.1416,-0.0729,0.9755,0,0,0
25:33.6,1150.3,-0.1401,-0.0166,0.9628,0,0,0
25:33.6,1150.3,-0.1401,-0.0166,0.9628,0,0,0
25:33.7,1176.5,-0.1037,-0.0559,0.9626,0,0,0
25:33.7,1176.5,-0.1037,-0.0559,0.9626,0,0,0
25:33.9,1189.6,-0.1198,-0.0544,0.955,0,0,0
25:34.0,1176.5,-0.1486,-0.0385,0.9526,0,0,0
25:34.0,1150.3,-0.1853,-0.0412,0.9345,0,0,0
25:34.0,1150.3,-0.1853,-0.0412,0.9345,0,0,0
25:34.0,1150.3,-0.1853,-0.0412,0.9345,0,0,0
25:34.0,1150.3,-0.1853,-0.0412,0.9345,0,0,0
25:34.0,1150.3,-0.1457,-0.0478,0.9672,0,0,0
25:34.0,1150.3,-0.1457,-0.0478,0.9672,0,0,0
25:34.2,1163.4,-0.177,-0.0668,0.9599,0,0,0
25:34.2,1163.4,-0.177,-0.0668,0.9599,0,0,0
25:34.2,1176.5,-0.1372,-0.018,0.9516,0,0,0
25:34.2,1176.5,-0.1372,-0.018,0.9516,0,0,0
25:34.4,1163.4,-0.1711,-0.0661,0.9553,0,0,0
25:34.4,1163.4,-0.1711,-0.0661,0.9553,0,0,0
25:34.4,1150.3,-0.1301,-0.039,0.9519,0,0,0
25:34.4,1150.3,-0.1301,-0.039,0.9519,0,0,0
25:34.7,1137.2,-0.1398,-0.0507,0.9545,0,0,0
25:34.7,1137.2,-0.1398,-0.0507,0.9545,0,0,0
25:34.7,1150.3,-0.144,-0.0278,0.955,0,0,0
25:34.7,1150.3,-0.144,-0.0278,0.955,0,0,0
25:35.3,1110.9,-0.1125,-0.031,0.9562,0,0,0
25:35.3,1137.2,-0.1347,-0.0466,0.958,0,0,0
25:35.3,1137.2,-0.1347,-0.0466,0.958,0,0,0
25:35.3,1110.9,-0.081,-0.0539,0.9567,0,0,0
25:35.3,1110.9,-0.081,-0.0539,0.9567,0,0,0
25:35.6,1137.2,-0.1174,-0.0319,0.9497,0,0,0
25:35.6,1137.2,-0.1174,-0.0319,0.9497,0,0,0
25:35.6,1137.2,-0.1186,-0.031,0.958,0,0,0
25:35.6,1137.2,-0.1186,-0.031,0.958,0,0,0
25:35.9,1124,-0.1335,-0.0258,0.9645,0,0,0
25:35.9,1124,-0.1335,-0.0258,0.9645,0,0,0
25:36.2,1124,-0.1489,-0.049,0.9641,0,0,0
25:36.2,1202.7,-0.1665,-0.0334,0.9587,0,0,0
25:36.2,1202.7,-0.1665,-0.0334,0.9587,0,0,0
25:36.5,1163.4,-0.1188,-0.0676,0.9453,0,0,0
25:36.5,1163.4,-0.1188,-0.0676,0.9453,0,0,0