timestamp,pressure,accel_x,accel_y,accel_z
2025-05-09 12:40:11.158611,481.9,0.0378,-0.0107,0.9682
2025-05-09 12:40:11.159368,481.9,0.0378,-0.0107,0.9682
2025-05-09 12:40:11.567496,455.7,0.0346,-0.0227,0.9677
2025-05-09 12:40:11.567949,455.7,0.0346,-0.0227,0.9677
2025-05-09 12:40:12.108083,508.1,0.0317,-0.0119,0.9702
2025-05-09 12:40:12.108297,508.1,0.0317,-0.0119,0.9702
2025-05-09 12:40:12.566237,468.8,0.0407,-0.0095,0.9729
2025-05-09 12:40:12.566816,455.7,0.0388,-0.0126,0.9702
2025-05-09 12:40:12.567123,455.7,0.0388,-0.0126,0.9702
2025-05-09 12:40:12.764945,481.9,0.031,-0.0146,0.9709
2025-05-09 12:40:12.765160,481.9,0.031,-0.0146,0.9709
2025-05-09 12:40:13.958245,442.59999999999997,0.0432,-0.0134,0.9733
2025-05-09 12:40:13.958599,442.59999999999997,0.0432,-0.0134,0.9733
2025-05-09 12:40:14.259319,442.59999999999997,0.0314,-0.0107,0.9392
2025-05-09 12:40:14.259731,442.59999999999997,0.0314,-0.0107,0.9392
2025-05-09 12:40:14.354565,429.5,0.031,-0.0114,0.9733
2025-05-09 12:40:14.354935,429.5,0.031,-0.0114,0.9733
2025-05-09 12:40:14.809450,455.7,0.0388,-0.0183,0.9692
2025-05-09 12:40:14.809738,455.7,0.0388,-0.0183,0.9692
2025-05-09 12:40:14.860228,455.7,0.0388,-0.0183,0.9692
2025-05-09 12:40:14.860949,455.7,0.0388,-0.0183,0.9692
2025-05-09 12:40:15.168074,455.7,0.0375,-0.0083,0.967
2025-05-09 12:40:15.168330,455.7,0.0375,-0.0083,0.967
2025-05-09 12:40:16.312925,481.9,0.0329,-0.0083,0.9736
2025-05-09 12:40:16.313539,481.9,0.0329,-0.0083,0.9736
2025-05-09 12:40:16.954833,468.8,0.0375,-0.0139,0.9655
2025-05-09 12:40:16.955601,468.8,0.0375,-0.0139,0.9655
2025-05-09 12:40:17.290439,508.1,0.038,-0.0139,0.9653
2025-05-09 12:40:17.515154,481.9,0.0327,-0.0185,0.9699
2025-05-09 12:40:17.515539,481.9,0.0327,-0.0185,0.9699
2025-05-09 12:40:17.808309,455.7,0.0368,-0.0141,0.9628
2025-05-09 12:40:17.808494,455.7,0.0368,-0.0141,0.9628
2025-05-09 12:40:17.855041,455.7,0.0368,-0.0141,0.9628
2025-05-09 12:40:17.855978,455.7,0.0368,-0.0141,0.9628
2025-05-09 12:40:17.867738,468.8,0.0405,-0.0104,0.9704
2025-05-09 12:40:17.868386,468.8,0.0405,-0.0104,0.9704
2025-05-09 12:40:18.181607,481.9,0.0327,-0.0117,0.9658
2025-05-09 12:40:18.458736,455.7,0.0354,-0.0146,0.9624
2025-05-09 12:40:18.459269,455.7,0.0354,-0.0146,0.9624
2025-05-09 12:40:18.767781,468.8,0.0871,-0.02,0.9436
2025-05-09 12:40:18.768580,468.8,0.0871,-0.02,0.9436
2025-05-09 12:40:19.078108,429.5,0.0354,-0.0026,0.989
2025-05-09 12:40:19.384119,481.9,0.0375,-0.0161,0.9726
2025-05-09 12:40:19.654799,468.8,0.0385,-0.0178,0.9753
2025-05-09 12:40:19.655093,468.8,0.0385,-0.0178,0.9753
2025-05-09 12:40:20.210840,481.9,0.0275,-0.0126,0.9624
2025-05-09 12:40:20.257283,508.1,0.0415,-0.0134,0.9753
2025-05-09 12:40:20.558533,442.59999999999997,0.0339,-0.0175,0.9707
2025-05-09 12:40:20.558708,442.59999999999997,0.0339,-0.0175,0.9707
2025-05-09 12:40:20.844681,468.8,0.0405,-0.0134,0.9636
2025-05-09 12:40:21.165703,455.7,0.0358,-0.0175,0.9602
2025-05-09 12:40:21.165885,455.7,0.0358,-0.0175,0.9602
2025-05-09 12:40:21.365353,495.0,0.027,-0.0122,0.9804
2025-05-09 12:40:21.365530,495.0,0.027,-0.0122,0.9804
2025-05-09 12:40:21.464349,495.0,0.0385,-0.0131,0.9689
2025-05-09 12:40:21.464759,495.0,0.0385,-0.0131,0.9689
2025-05-09 12:40:22.310722,455.7,0.0349,-0.0104,0.9831
2025-05-09 12:40:22.310904,455.7,0.0349,-0.0104,0.9831
2025-05-09 12:40:22.981002,481.9,0.04,-0.0178,0.9689
2025-05-09 12:40:23.213199,481.9,0.0334,-0.0134,0.9858
2025-05-09 12:40:23.213374,481.9,0.0334,-0.0134,0.9858
2025-05-09 12:40:23.265445,442.59999999999997,0.04,-0.0065,0.9741
2025-05-09 12:40:23.266142,442.59999999999997,0.04,-0.0065,0.9741
2025-05-09 12:40:23.809677,455.7,0.0358,-0.0107,0.9702
2025-05-09 12:40:23.810140,455.7,0.0358,-0.0107,0.9702
2025-05-09 12:40:23.851512,455.7,0.0358,-0.0107,0.9702
2025-05-09 12:40:23.851865,455.7,0.0358,-0.0107,0.9702
2025-05-09 12:40:24.163365,468.8,0.038,-0.0061,0.9677
2025-05-09 12:40:24.466724,455.7,0.0319,-0.0114,0.9719
2025-05-09 12:40:24.467137,455.7,0.0319,-0.0114,0.9719
2025-05-09 12:40:24.780127,495.0,0.0375,-0.0122,0.9748
2025-05-09 12:40:25.054907,455.7,0.0415,-0.0117,0.9562
2025-05-09 12:40:25.055259,455.7,0.0415,-0.0117,0.9562
2025-05-09 12:40:26.654542,455.7,0.0427,-0.0046,0.9746
2025-05-09 12:40:26.654837,455.7,0.0427,-0.0046,0.9746
2025-05-09 12:40:26.864784,442.59999999999997,0.038,-0.0134,0.967
2025-05-09 12:40:26.865061,442.59999999999997,0.038,-0.0134,0.967
2025-05-09 12:40:27.159905,455.7,0.0407,-0.0107,0.9733
2025-05-09 12:40:27.160910,455.7,0.0407,-0.0107,0.9733
2025-05-09 12:40:27.214628,442.59999999999997,0.0336,-0.0212,0.9621
2025-05-09 12:40:27.214901,442.59999999999997,0.0336,-0.0212,0.9621
2025-05-09 12:40:27.500619,442.59999999999997,0.0349,-0.008,0.9694
2025-05-09 12:40:27.995270,429.5,0.0361,-0.0119,0.9733
2025-05-09 12:40:28.007910,468.8,0.0354,-0.0107,0.9672
2025-05-09 12:40:28.008114,468.8,0.0354,-0.0107,0.9672
2025-05-09 12:40:28.894755,455.7,0.0356,-0.0114,0.9746
2025-05-09 12:40:28.965671,442.59999999999997,0.0339,-0.0166,0.9645
2025-05-09 12:40:28.965878,442.59999999999997,0.0339,-0.0166,0.9645
2025-05-09 12:40:29.250829,468.8,0.0097,-0.0224,0.9599
2025-05-09 12:40:29.251035,468.8,0.0097,-0.0224,0.9599
2025-05-09 12:40:29.605769,455.7,-0.0168,0.0083,0.9699
2025-05-09 12:40:29.605992,455.7,-0.0168,0.0083,0.9699
2025-05-09 12:40:29.806536,468.8,0.0292,-0.0053,0.958
2025-05-09 12:40:29.807163,468.8,0.0292,-0.0053,0.958
2025-05-09 12:40:29.865891,481.9,0.038,-0.0065,0.9694
2025-05-09 12:40:29.866159,481.9,0.038,-0.0065,0.9694
2025-05-09 12:40:30.410757,481.9,-0.0278,-0.0021,0.9733
2025-05-09 12:40:30.411128,481.9,-0.0278,-0.0021,0.9733
2025-05-09 12:40:30.487117,468.8,0.0317,-0.0004,0.9689
2025-05-09 12:40:30.765854,429.5,-0.0202,0.1105,1.0002
2025-05-09 12:40:30.766118,429.5,-0.0202,0.1105,1.0002
2025-05-09 12:40:31.009210,468.8,0.0048,0.1716,0.9401
2025-05-09 12:40:31.009507,468.8,0.0048,0.1716,0.9401
2025-05-09 12:40:31.364210,455.7,-0.1398,0.247,0.9074
2025-05-09 12:40:31.364402,455.7,-0.1398,0.247,0.9074
2025-05-09 12:40:31.606797,495.0,-0.1252,0.2416,0.9125
2025-05-09 12:40:31.607018,495.0,-0.1252,0.2416,0.9125
2025-05-09 12:40:31.665622,468.8,-0.1005,0.2365,0.9187
2025-05-09 12:40:31.665913,468.8,-0.1005,0.2365,0.9187
2025-05-09 12:40:31.967146,468.8,-0.0915,0.2131,0.9582
2025-05-09 12:40:31.967435,468.8,-0.0915,0.2131,0.9582
2025-05-09 12:40:33.264087,468.8,0.0375,-0.01,0.9748
2025-05-09 12:40:33.265480,468.8,0.0285,-0.0109,0.9755
2025-05-09 12:40:33.265689,468.8,0.0285,-0.0109,0.9755
2025-05-09 12:40:33.465815,481.9,0.0356,-0.0095,0.9714
2025-05-09 12:40:33.466175,481.9,0.0356,-0.0095,0.9714
2025-05-09 12:40:34.952536,442.59999999999997,0.0385,-0.0148,0.9597
2025-05-09 12:40:34.952796,442.59999999999997,0.0385,-0.0148,0.9597
2025-05-09 12:40:35.208112,468.8,0.0273,-0.0202,0.9729
2025-05-09 12:40:35.208324,468.8,0.0273,-0.0202,0.9729
2025-05-09 12:40:35.252294,468.8,0.0273,-0.0202,0.9729
2025-05-09 12:40:35.252688,468.8,0.0273,-0.0202,0.9729
2025-05-09 12:40:36.111318,455.7,0.0412,-0.0161,0.9677
2025-05-09 12:40:36.111746,455.7,0.0412,-0.0161,0.9677
2025-05-09 12:40:36.155942,455.7,0.0412,-0.0161,0.9677
2025-05-09 12:40:36.156115,455.7,0.0412,-0.0161,0.9677
2025-05-09 12:40:36.180239,455.7,0.0429,-0.0146,0.9736
2025-05-09 12:40:36.456968,455.7,0.0349,-0.0063,0.9621
2025-05-09 12:40:36.457202,455.7,0.0349,-0.0063,0.9621
2025-05-09 12:40:36.799782,455.7,0.0317,-0.0139,0.9633
2025-05-09 12:40:37.050660,468.8,0.0307,-0.0124,0.9694
2025-05-09 12:40:37.051053,468.8,0.0307,-0.0124,0.9694
2025-05-09 12:40:37.650197,481.9,0.0368,-0.0126,0.9658
2025-05-09 12:40:37.650477,481.9,0.0368,-0.0126,0.9658
2025-05-09 12:40:38.580286,455.7,0.0346,-0.0112,0.9707
2025-05-09 12:40:39.409547,455.7,0.0456,-0.0043,0.9594
2025-05-09 12:40:39.409875,455.7,0.0456,-0.0043,0.9594
2025-05-09 12:40:40.374065,442.59999999999997,0.0341,-0.0144,0.976
2025-05-09 12:40:40.465924,468.8,0.0412,-0.0061,0.967
2025-05-09 12:40:40.466459,468.8,0.0412,-0.0061,0.967
2025-05-09 12:40:40.660162,508.1,0.0344,-0.0129,0.9753
2025-05-09 12:40:40.660458,508.1,0.0344,-0.0129,0.9753
2025-05-09 12:40:40.665802,495.0,0.0378,-0.0126,0.9682
2025-05-09 12:40:40.666067,495.0,0.0378,-0.0126,0.9682
2025-05-09 12:40:40.925459,455.7,0.0424,-0.0085,0.9743
2025-05-09 12:40:41.248677,468.8,0.0339,-0.0075,0.9738
2025-05-09 12:40:41.248830,468.8,0.0339,-0.0075,0.9738
2025-05-09 12:40:41.867128,429.5,0.0393,-0.0209,0.9565
2025-05-09 12:40:41.867320,429.5,0.0393,-0.0209,0.9565
2025-05-09 12:40:42.457123,455.7,0.0336,-0.0083,0.9775
2025-05-09 12:40:42.457446,455.7,0.0336,-0.0083,0.9775
2025-05-09 12:40:42.466592,442.59999999999997,0.0424,-0.0141,0.9709
2025-05-09 12:40:42.467133,442.59999999999997,0.0424,-0.0141,0.9709
2025-05-09 12:40:43.007233,481.9,0.0319,-0.0139,0.9663
2025-05-09 12:40:43.065184,455.7,0.0366,-0.0085,0.9748
2025-05-09 12:40:43.065775,455.7,0.0366,-0.0085,0.9748
2025-05-09 12:40:43.356178,455.7,0.0405,-0.0139,0.9602
2025-05-09 12:40:43.356503,455.7,0.0405,-0.0139,0.9602
2025-05-09 12:40:44.553271,468.8,0.0419,-0.0183,0.9665
2025-05-09 12:40:44.553591,468.8,0.0419,-0.0183,0.9665
2025-05-09 12:40:46.028084,442.59999999999997,0.0373,-0.0087,0.9645
2025-05-09 12:40:46.065894,481.9,0.028,-0.0126,0.9667
2025-05-09 12:40:46.066203,481.9,0.028,-0.0126,0.9667
2025-05-09 12:40:47.589037,429.5,0.0395,-0.0175,0.9672
2025-05-09 12:40:48.110760,495.0,0.0354,-0.0156,0.9682
2025-05-09 12:40:48.110940,495.0,0.0354,-0.0156,0.9682
2025-05-09 12:40:48.215694,495.0,0.0354,-0.0092,0.9689
2025-05-09 12:40:48.216048,495.0,0.0354,-0.0092,0.9689
2025-05-09 12:40:48.416004,468.8,0.0351,-0.0112,0.9733
2025-05-09 12:40:48.451335,468.8,0.0351,-0.0112,0.9733
2025-05-09 12:40:48.451726,468.8,0.0351,-0.0112,0.9733
2025-05-09 12:40:49.057948,455.7,0.0354,-0.0192,0.9709
2025-05-09 12:40:49.058126,455.7,0.0354,-0.0192,0.9709
2025-05-09 12:40:49.907405,481.9,0.0339,-0.0114,0.9733
2025-05-09 12:40:49.907816,481.9,0.0339,-0.0114,0.9733
2025-05-09 12:40:50.221311,442.59999999999997,0.0371,-0.0073,0.9743
2025-05-09 12:40:50.866703,468.8,0.0463,-0.0075,0.9687
2025-05-09 12:40:50.867016,468.8,0.0463,-0.0075,0.9687
2025-05-09 12:40:52.206055,481.9,0.0346,-0.0134,0.9653
2025-05-09 12:40:52.674787,495.0,0.0249,-0.0161,0.965
2025-05-09 12:40:53.155252,495.0,0.031,-0.0095,0.9655
2025-05-09 12:40:53.155522,495.0,0.031,-0.0095,0.9655
2025-05-09 12:40:53.612544,521.2,0.0368,-0.008,0.9746
2025-05-09 12:40:53.612928,521.2,0.0368,-0.008,0.9746
2025-05-09 12:40:53.808660,455.7,0.039,-0.0126,0.9628
2025-05-09 12:40:53.809089,455.7,0.039,-0.0126,0.9628
2025-05-09 12:40:55.614583,508.1,0.0363,-0.0239,0.967
2025-05-09 12:40:55.614919,508.1,0.0363,-0.0239,0.967
2025-05-09 12:40:55.954378,481.9,0.038,-0.0102,0.9594
2025-05-09 12:40:55.954693,481.9,0.038,-0.0102,0.9594
2025-05-09 12:40:56.134562,468.8,0.0358,-0.0078,0.9733
2025-05-09 12:40:56.265300,495.0,0.0417,-0.0114,0.9685
2025-05-09 12:40:56.265690,495.0,0.0417,-0.0114,0.9685
2025-05-09 12:40:56.892117,521.2,0.049,-0.0207,0.9885
2025-05-09 12:40:57.458492,508.1,0.0383,-0.0122,0.9746
2025-05-09 12:40:57.458993,508.1,0.0383,-0.0122,0.9746
2025-05-09 12:40:57.746090,521.2,0.0439,-0.0136,0.9702
2025-05-09 12:40:57.785773,521.2,0.0393,-0.0061,0.9685
2025-05-09 12:40:58.049677,521.2,0.039,-0.0141,0.966
2025-05-09 12:40:58.050448,521.2,0.039,-0.0141,0.966
2025-05-09 12:40:59.513796,547.4,0.0363,-0.0117,0.968
2025-05-09 12:40:59.514115,547.4,0.0363,-0.0117,0.968
2025-05-09 12:40:59.565839,547.4,0.0358,-0.0141,0.9731
2025-05-09 12:40:59.566244,547.4,0.0358,-0.0141,0.9731
2025-05-09 12:40:59.811764,534.3,0.0354,-0.017,0.9682
2025-05-09 12:40:59.812132,534.3,0.0354,-0.017,0.9682
2025-05-09 12:41:00.309385,534.3,0.027,-0.0183,0.9697
2025-05-09 12:41:00.309904,534.3,0.027,-0.0183,0.9697
2025-05-09 12:41:00.710992,521.2,0.0393,-0.008,0.9719
2025-05-09 12:41:00.711391,521.2,0.0393,-0.008,0.9719
2025-05-09 12:41:01.067445,521.2,0.0344,-0.0146,0.9589
2025-05-09 12:41:01.068192,521.2,0.0344,-0.0146,0.9589
2025-05-09 12:41:01.412144,508.1,0.0351,-0.0117,0.9738
2025-05-09 12:41:01.412391,508.1,0.0351,-0.0117,0.9738
2025-05-09 12:41:01.665732,534.3,0.0332,-0.0129,0.9626
2025-05-09 12:41:01.665928,534.3,0.0332,-0.0129,0.9626
2025-05-09 12:41:01.918665,534.3,0.0332,-0.0129,0.9626
2025-05-09 12:41:02.205748,521.2,0.038,-0.0158,0.9711
2025-05-09 12:41:02.205926,521.2,0.038,-0.0158,0.9711
2025-05-09 12:41:02.565479,534.3,0.0334,-0.0065,0.9658
2025-05-09 12:41:02.566184,534.3,0.0393,-0.0139,0.9628
2025-05-09 12:41:02.566416,534.3,0.0393,-0.0139,0.9628
2025-05-09 12:41:03.112382,521.2,0.0356,-0.0146,0.9631
2025-05-09 12:41:03.112710,521.2,0.0356,-0.0146,0.9631
2025-05-09 12:41:03.159566,521.2,0.0356,-0.0146,0.9631
2025-05-09 12:41:03.159965,521.2,0.0356,-0.0146,0.9631
2025-05-09 12:41:03.650711,547.4,0.0424,-0.0134,0.9567
2025-05-09 12:41:03.650979,547.4,0.0424,-0.0134,0.9567
2025-05-09 12:41:04.317425,508.1,0.0332,-0.0134,0.9741
2025-05-09 12:41:04.351987,560.5,0.0349,-0.0122,0.9685
2025-05-09 12:41:04.352214,560.5,0.0349,-0.0122,0.9685
2025-05-09 12:41:04.951136,547.4,0.03,-0.0024,0.9724
2025-05-09 12:41:04.951975,547.4,0.03,-0.0024,0.9724
2025-05-09 12:41:05.264417,495.0,0.0334,-0.0141,0.9711
2025-05-09 12:41:05.264845,508.1,0.038,-0.0139,0.9746
2025-05-09 12:41:05.265429,508.1,0.038,-0.0139,0.9746
2025-05-09 12:41:05.548453,521.2,0.031,-0.0119,0.977
2025-05-09 12:41:05.867588,521.2,0.0375,-0.0063,0.9719
2025-05-09 12:41:05.868121,521.2,0.0375,-0.0063,0.9719
2025-05-09 12:41:06.157628,495.0,0.0349,-0.0085,0.9687
2025-05-09 12:41:06.157968,495.0,0.0349,-0.0085,0.9687
2025-05-09 12:41:06.510925,521.2,0.0402,-0.0068,0.9702
2025-05-09 12:41:06.511170,521.2,0.0402,-0.0068,0.9702
2025-05-09 12:41:07.360210,495.0,0.0378,-0.0134,0.9753
2025-05-09 12:41:07.613972,481.9,0.0312,-0.0114,0.976
2025-05-09 12:41:07.614304,481.9,0.0312,-0.0114,0.976
2025-05-09 12:41:07.707016,481.9,0.0312,-0.0114,0.976
2025-05-09 12:41:08.810615,521.2,0.0346,-0.0102,0.9699
2025-05-09 12:41:08.811042,521.2,0.0346,-0.0102,0.9699
2025-05-09 12:41:09.775017,521.2,0.0339,-0.0083,0.9731
2025-05-09 12:41:10.065234,508.1,0.0305,-0.0136,0.9721
2025-05-09 12:41:10.065734,508.1,0.0305,-0.0136,0.9721
2025-05-09 12:41:10.965937,521.2,0.0356,-0.0146,0.9711
2025-05-09 12:41:10.966469,521.2,0.0356,-0.0146,0.9711
2025-05-09 12:41:11.853791,521.2,0.0334,-0.009,0.9716
2025-05-09 12:41:11.853936,521.2,0.0334,-0.009,0.9716
2025-05-09 12:41:11.907460,495.0,0.0285,-0.0119,0.9736
2025-05-09 12:41:11.907730,495.0,0.0285,-0.0119,0.9736
2025-05-09 12:41:12.406984,495.0,0.0349,-0.0136,0.9648
2025-05-09 12:41:12.407171,495.0,0.0349,-0.0136,0.9648
2025-05-09 12:41:12.755567,455.7,0.0349,-0.0119,0.9694
2025-05-09 12:41:12.755857,455.7,0.0349,-0.0119,0.9694
2025-05-09 12:41:12.814269,442.59999999999997,0.0356,-0.0126,0.9626
2025-05-09 12:41:12.814734,442.59999999999997,0.0356,-0.0126,0.9626
2025-05-09 12:41:13.055503,468.8,0.039,-0.008,0.9694
2025-05-09 12:41:13.055801,468.8,0.039,-0.008,0.9694
2025-05-09 12:41:13.665711,481.9,0.0339,-0.0139,0.9685
2025-05-09 12:41:13.665934,481.9,0.0339,-0.0139,0.9685
2025-05-09 12:41:14.806349,481.9,0.0292,-0.0122,0.9697
2025-05-09 12:41:14.806639,481.9,0.0292,-0.0122,0.9697
2025-05-09 12:41:14.912717,495.0,0.0388,-0.008,0.9716
2025-05-09 12:41:14.913480,495.0,0.0388,-0.008,0.9716
2025-05-09 12:41:15.117267,508.1,0.0356,-0.0114,0.9665
2025-05-09 12:41:15.117633,508.1,0.0356,-0.0114,0.9665
2025-05-09 12:41:16.058740,455.7,0.0344,-0.0156,0.9704
2025-05-09 12:41:16.059124,455.7,0.0344,-0.0156,0.9704
2025-05-09 12:41:16.308478,455.7,0.0424,-0.0104,0.9682
2025-05-09 12:41:16.308659,455.7,0.0424,-0.0104,0.9682
2025-05-09 12:41:16.627775,455.7,0.0275,-0.0148,0.968
2025-05-09 12:41:16.953005,455.7,0.0476,-0.0117,0.9636
2025-05-09 12:41:16.953225,455.7,0.0476,-0.0117,0.9636
2025-05-09 12:41:17.206687,521.2,0.0329,-0.0175,0.9697
2025-05-09 12:41:17.207237,521.2,0.0329,-0.0175,0.9697
2025-05-09 12:41:17.264266,534.3,0.0349,-0.0112,0.9675
2025-05-09 12:41:17.264605,534.3,0.0349,-0.0112,0.9675
2025-05-09 12:41:18.133424,468.8,0.0351,-0.0156,0.9658
2025-05-09 12:41:19.311030,508.1,0.0375,-0.0144,0.9616
2025-05-09 12:41:19.311510,508.1,0.0375,-0.0144,0.9616
2025-05-09 12:41:19.365706,495.0,0.0434,-0.0185,0.9748
2025-05-09 12:41:19.366145,495.0,0.0434,-0.0185,0.9748
2025-05-09 12:41:19.904872,481.9,0.0327,-0.0131,0.966
2025-05-09 12:41:19.905126,481.9,0.0327,-0.0131,0.966
2025-05-09 12:41:20.716404,455.7,0.0344,-0.01,0.9714
2025-05-09 12:41:20.801891,468.8,0.038,-0.01,0.9707
2025-05-09 12:41:20.911389,521.2,0.0385,-0.017,0.9777
2025-05-09 12:41:21.512156,495.0,0.0383,-0.0107,0.965
2025-05-09 12:41:21.512328,495.0,0.0383,-0.0107,0.965
2025-05-09 12:41:22.111163,508.1,0.0356,-0.008,0.9736
2025-05-09 12:41:22.111285,508.1,0.0356,-0.008,0.9736
2025-05-09 12:41:22.313839,508.1,0.0351,-0.0148,0.9621
2025-05-09 12:41:22.314032,508.1,0.0351,-0.0148,0.9621
2025-05-09 12:41:22.357148,508.1,0.0351,-0.0148,0.9621
2025-05-09 12:41:22.357349,508.1,0.0351,-0.0148,0.9621
2025-05-09 12:41:22.364569,495.0,0.0371,-0.0104,0.9602
2025-05-09 12:41:22.364758,495.0,0.0371,-0.0104,0.9602
2025-05-09 12:41:23.665723,508.1,0.0371,-0.0156,0.9794
2025-05-09 12:41:23.666023,508.1,0.0371,-0.0156,0.9794
2025-05-09 12:41:24.131458,481.9,0.0346,-0.0168,0.9731
2025-05-09 12:41:24.213184,481.9,0.0317,-0.0124,0.9733
2025-05-09 12:41:24.213540,481.9,0.0317,-0.0124,0.9733
2025-05-09 12:41:25.363665,508.1,0.0334,-0.0161,0.9694
2025-05-09 12:41:25.364033,508.1,0.0334,-0.0161,0.9694
2025-05-09 12:41:28.615697,521.2,0.0327,-0.0117,0.9702
2025-05-09 12:41:28.616272,521.2,0.0327,-0.0117,0.9702
2025-05-09 12:41:28.655217,521.2,0.0327,-0.0117,0.9702
2025-05-09 12:41:28.655730,521.2,0.0327,-0.0117,0.9702
2025-05-09 12:41:28.963672,547.4,0.0378,-0.0156,0.9663
2025-05-09 12:41:28.963885,547.4,0.0378,-0.0156,0.9663
2025-05-09 12:41:29.265558,560.5,0.0354,-0.0102,0.9755
2025-05-09 12:41:29.266282,560.5,0.0354,-0.0102,0.9755
2025-05-09 12:41:29.811998,560.5,0.0358,-0.0061,0.9682
2025-05-09 12:41:29.812232,560.5,0.0358,-0.0061,0.9682
2025-05-09 12:41:29.912254,534.3,0.0324,-0.0151,0.9677
2025-05-09 12:41:29.912676,534.3,0.0324,-0.0151,0.9677
2025-05-09 12:41:30.756013,534.3,0.0327,-0.0112,0.9382
2025-05-09 12:41:30.756339,534.3,0.0327,-0.0112,0.9382
2025-05-09 12:41:30.783967,573.6,0.0324,-0.0112,0.9685
2025-05-09 12:41:31.111015,534.3,0.0371,-0.0144,0.9694
2025-05-09 12:41:31.111251,534.3,0.0371,-0.0144,0.9694
2025-05-09 12:41:31.450331,534.3,0.0346,-0.0112,0.9711
