id,timestamp,packet_id,pressure,accel_x,accel_y,accel_z
180_1,2025-07-19 01:04:54.664322,180,-292.9,-0.2521,-0.258,1.0075
180_2,2025-07-19 01:04:54.764322,180,-30.8,-0.25,-0.2565,1.0056
180_3,2025-07-19 01:04:54.864322,180,-30.8,-0.2512,-0.26,1.008
187_1,2025-07-19 01:04:55.329183,187,-424.0,-0.2458,-0.2551,1.0043
187_2,2025-07-19 01:04:55.429183,187,-292.9,-0.2431,-0.2573,1.0095
187_3,2025-07-19 01:04:55.529183,187,-555.1,-0.2509,-0.2548,1.0073
190_1,2025-07-19 01:04:55.631733,190,-555.1,-0.2534,-0.2553,1.0114
190_2,2025-07-19 01:04:55.731733,190,-555.1,-0.2495,-0.2568,1.0068
190_3,2025-07-19 01:04:55.831733,190,-292.9,-0.2519,-0.259,1.0109
193_1,2025-07-19 01:04:55.930824,193,-292.9,-0.2524,-0.2563,1.0087
193_2,2025-07-19 01:04:56.030824,193,-555.1,-0.2548,-0.2517,1.0019
193_3,2025-07-19 01:04:56.130824,193,-424.0,-0.2507,-0.2561,0.999
199_1,2025-07-19 01:04:56.535387,199,100.3,-0.2468,-0.2573,1.0014
199_2,2025-07-19 01:04:56.635387,199,-292.9,-0.2529,-0.2556,1.0073
199_3,2025-07-19 01:04:56.735387,199,-292.9,-0.2497,-0.2568,1.0063
202_1,2025-07-19 01:04:56.836250,202,-555.1,-0.2514,-0.258,1.0078
202_2,2025-07-19 01:04:56.936250,202,-817.2,-0.2482,-0.258,1.0083
202_3,2025-07-19 01:04:57.036250,202,-424.0,-0.2482,-0.2558,1.0092
205_1,2025-07-19 01:04:57.130407,205,-292.9,-0.2529,-0.2614,1.0041
205_2,2025-07-19 01:04:57.230407,205,-424.0,-0.2524,-0.2553,1.0102
205_3,2025-07-19 01:04:57.330407,205,-555.1,-0.2524,-0.2548,1.017
211_1,2025-07-19 01:04:58.031568,211,-30.8,-0.2482,-0.2517,1.0056
211_2,2025-07-19 01:04:58.131568,211,231.4,-0.2492,-0.2612,1.0043
211_3,2025-07-19 01:04:58.231568,211,100.3,-0.2495,-0.2543,1.0131
214_1,2025-07-19 01:04:58.031948,214,-292.9,-0.2482,-0.257,1.0126
214_2,2025-07-19 01:04:58.131948,214,100.3,-0.2543,-0.2592,1.0019
214_3,2025-07-19 01:04:58.231948,214,100.3,-0.2524,-0.259,1.0112
217_1,2025-07-19 01:04:58.335651,217,-30.8,-0.2539,-0.2592,1.0021
217_2,2025-07-19 01:04:58.435651,217,-161.8,-0.2546,-0.2565,1.0031
217_3,2025-07-19 01:04:58.535651,217,-424.0,-0.2512,-0.2558,1.0126
223_1,2025-07-19 01:04:58.933263,223,-161.8,-0.2507,-0.2556,1.0158
223_2,2025-07-19 01:04:59.033263,223,-161.8,-0.2531,-0.2534,1.0085
223_3,2025-07-19 01:04:59.133263,223,-424.0,-0.2526,-0.2587,1.0068
232_1,2025-07-19 01:04:59.832060,232,-424.0,-0.2485,-0.2524,1.007
232_2,2025-07-19 01:04:59.932060,232,-686.1,-0.2509,-0.2575,1.0126
232_3,2025-07-19 01:05:00.032060,232,-686.1,-0.2507,-0.2565,1.0107
235_1,2025-07-19 01:05:00.138121,235,-424.0,-0.2507,-0.2556,1.0026
235_2,2025-07-19 01:05:00.238121,235,-555.1,-0.2531,-0.2578,1.0031
235_3,2025-07-19 01:05:00.338121,235,-555.1,-0.2463,-0.2517,1.0073
238_1,2025-07-19 01:05:00.437028,238,-424.0,-0.2514,-0.2548,1.0075
238_2,2025-07-19 01:05:00.537028,238,-555.1,-0.2453,-0.2539,1.0046
238_3,2025-07-19 01:05:00.637028,238,-424.0,-0.2487,-0.2556,1.0124
241_1,2025-07-19 01:05:00.730234,241,-30.8,-0.2451,-0.2609,1.009
241_2,2025-07-19 01:05:00.830234,241,-161.8,-0.25,-0.2529,1.0063
241_3,2025-07-19 01:05:00.930234,241,-292.9,-0.2541,-0.2556,1.0119
244_1,2025-07-19 01:05:01.037136,244,-424.0,-0.2473,-0.2551,1.0041
244_2,2025-07-19 01:05:01.137136,244,-292.9,-0.2526,-0.2551,1.0112
244_3,2025-07-19 01:05:01.237136,244,-686.1,-0.2502,-0.257,1.0002
247_1,2025-07-19 01:05:01.334607,247,-1079.3,-0.2509,-0.2551,1.0114
247_2,2025-07-19 01:05:01.434607,247,-424.0,-0.2536,-0.2543,1.0126
247_3,2025-07-19 01:05:01.534607,247,-161.8,-0.2507,-0.2519,1.0046
250_1,2025-07-19 01:05:01.634422,250,-424.0,-0.2529,-0.2536,1.0073
250_2,2025-07-19 01:05:01.734422,250,-555.1,-0.2487,-0.2548,1.0058
250_3,2025-07-19 01:05:01.834422,250,-555.1,-0.2543,-0.2543,1.0034
0_1,2025-07-19 01:05:02.232283,0,-555.1,-0.2521,-0.2517,1.0061
0_2,2025-07-19 01:05:02.332283,0,-686.1,-0.2546,-0.257,1.0039
0_3,2025-07-19 01:05:02.432283,0,-686.1,-0.2429,-0.2546,1.0046
3_1,2025-07-19 01:05:02.536053,3,-161.8,-0.2568,-0.2561,1.0109
3_2,2025-07-19 01:05:02.636053,3,-30.8,-0.247,-0.2558,0.997
3_3,2025-07-19 01:05:02.736053,3,-292.9,-0.2512,-0.2602,1.0063
6_1,2025-07-19 01:05:02.889330,6,-292.9,-0.2517,-0.2529,1.007
6_2,2025-07-19 01:05:02.989330,6,-292.9,-0.2563,-0.2561,1.0107
6_3,2025-07-19 01:05:03.089330,6,-292.9,-0.2509,-0.2561,1.0146
12_1,2025-07-19 01:05:03.434096,12,-686.1,-0.2521,-0.2565,1.0083
12_2,2025-07-19 01:05:03.534096,12,-292.9,-0.2492,-0.2561,1.0122
12_3,2025-07-19 01:05:03.634096,12,100.3,-0.2509,-0.2597,1.0141
15_1,2025-07-19 01:05:03.738694,15,-30.8,-0.2492,-0.2539,1.0083
15_2,2025-07-19 01:05:03.838694,15,-555.1,-0.2534,-0.2541,1.0073
15_3,2025-07-19 01:05:03.938694,15,-817.2,-0.2553,-0.2575,1.0095
18_1,2025-07-19 01:05:04.032764,18,-686.1,-0.2519,-0.2553,1.007
18_2,2025-07-19 01:05:04.132764,18,-292.9,-0.2509,-0.2592,1.0107
18_3,2025-07-19 01:05:04.232764,18,-30.8,-0.2509,-0.2558,1.0085
24_1,2025-07-19 01:05:04.633223,24,-686.1,-0.2512,-0.2529,1.0053
24_2,2025-07-19 01:05:04.733223,24,-555.1,-0.2507,-0.2561,1.0046
24_3,2025-07-19 01:05:04.833223,24,-292.9,-0.2546,-0.2521,0.9997
27_1,2025-07-19 01:05:04.928985,27,-161.8,-0.248,-0.2575,1.0019
27_2,2025-07-19 01:05:05.028985,27,-424.0,-0.2526,-0.2604,1.0041
27_3,2025-07-19 01:05:05.128985,27,-161.8,-0.2529,-0.2536,0.9997
30_1,2025-07-19 01:05:05.233915,30,100.3,-0.2531,-0.2597,1.0078
30_2,2025-07-19 01:05:05.333915,30,-424.0,-0.2526,-0.2614,1.0065
30_3,2025-07-19 01:05:05.433915,30,-817.2,-0.2482,-0.2546,1.0065
36_1,2025-07-19 01:05:05.835820,36,-817.2,-0.2551,-0.2565,1.0068
36_2,2025-07-19 01:05:05.935820,36,-424.0,-0.2514,-0.2534,1.0085
36_3,2025-07-19 01:05:06.035820,36,-424.0,-0.2578,-0.2553,1.0043
45_1,2025-07-19 01:05:06.735717,45,-555.1,-0.2578,-0.2556,1.0029
45_2,2025-07-19 01:05:06.835717,45,-292.9,-0.2565,-0.2592,1.0007
45_3,2025-07-19 01:05:06.935717,45,-555.1,-0.2541,-0.2531,1.0058
48_1,2025-07-19 01:05:07.030432,48,-555.1,-0.2507,-0.2546,1.0056
48_2,2025-07-19 01:05:07.130432,48,-555.1,-0.2524,-0.2526,1.0131
48_3,2025-07-19 01:05:07.230432,48,-555.1,-0.2595,-0.2558,1.0068
51_1,2025-07-19 01:05:07.332970,51,-686.1,-0.2529,-0.2541,1.0041
51_2,2025-07-19 01:05:07.432970,51,-686.1,-0.2536,-0.2565,1.0087
51_3,2025-07-19 01:05:07.532970,51,-424.0,-0.2507,-0.2614,1.0095
54_1,2025-07-19 01:05:07.634430,54,-555.1,-0.2529,-0.258,1.0046
54_2,2025-07-19 01:05:07.734430,54,-555.1,-0.2536,-0.2553,0.9934
54_3,2025-07-19 01:05:07.834430,54,-424.0,-0.2531,-0.258,1.0019
57_1,2025-07-19 01:05:08.521109,57,-555.1,-0.2531,-0.2585,1.0073
57_2,2025-07-19 01:05:08.621109,57,-424.0,-0.2568,-0.2575,1.0075
57_3,2025-07-19 01:05:08.721109,57,-424.0,-0.25,-0.2543,1.0107
66_1,2025-07-19 01:05:08.838253,66,-424.0,-0.2521,-0.2607,1.0063
66_2,2025-07-19 01:05:08.938253,66,-555.1,-0.2463,-0.2553,1.0126
66_3,2025-07-19 01:05:09.038253,66,-424.0,-0.2551,-0.2595,1.009
69_1,2025-07-19 01:05:09.137141,69,-555.1,-0.2514,-0.2575,1.0119
69_2,2025-07-19 01:05:09.237141,69,-424.0,-0.2529,-0.2553,1.0063
69_3,2025-07-19 01:05:09.337141,69,-30.8,-0.2531,-0.2585,1.0026
75_1,2025-07-19 01:05:10.032585,75,-424.0,-0.2531,-0.2578,1.0092
75_2,2025-07-19 01:05:10.132585,75,-424.0,-0.2536,-0.2578,1.0056
75_3,2025-07-19 01:05:10.232585,75,-161.8,-0.25,-0.2595,1.0131
78_1,2025-07-19 01:05:10.033423,78,-161.8,-0.2509,-0.2583,1.0065
78_2,2025-07-19 01:05:10.133423,78,-424.0,-0.2575,-0.2541,1.0107
78_3,2025-07-19 01:05:10.233423,78,-424.0,-0.2495,-0.2529,1.007
84_1,2025-07-19 01:05:10.633026,84,-292.9,-0.2539,-0.2514,1.0124
84_2,2025-07-19 01:05:10.733026,84,-292.9,-0.2529,-0.2519,1.0036
84_3,2025-07-19 01:05:10.833026,84,-161.8,-0.2556,-0.25,1.0061
87_1,2025-07-19 01:05:10.931828,87,-292.9,-0.2502,-0.2492,1.0104
87_2,2025-07-19 01:05:11.031828,87,-292.9,-0.2634,-0.2585,1.0102
87_3,2025-07-19 01:05:11.131828,87,-292.9,-0.2529,-0.2512,1.0029
90_1,2025-07-19 01:05:11.228973,90,-424.0,-0.2478,-0.2536,1.0175
90_2,2025-07-19 01:05:11.328973,90,-686.1,-0.2536,-0.2565,1.0097
90_3,2025-07-19 01:05:11.428973,90,-555.1,-0.2475,-0.2587,1.0207
93_1,2025-07-19 01:05:11.533480,93,-555.1,-0.2346,-0.258,1.0144
93_2,2025-07-19 01:05:11.633480,93,-686.1,-0.2043,-0.2614,1.0214
93_3,2025-07-19 01:05:11.733480,93,-686.1,-0.134,-0.2932,1.0126
99_1,2025-07-19 01:05:12.128590,99,-292.9,-0.0368,-0.1958,1.102
99_2,2025-07-19 01:05:12.228590,99,-555.1,-0.1791,-0.2294,1.0629
99_3,2025-07-19 01:05:12.328590,99,-424.0,-0.5163,-0.277,0.8967
102_1,2025-07-19 01:05:12.430405,102,100.3,-0.0693,-0.1997,1.0634
102_2,2025-07-19 01:05:12.530405,102,100.3,-0.1086,-0.2062,1.0505
102_3,2025-07-19 01:05:12.630405,102,-424.0,-0.0754,-0.1811,1.1962
106_1,2025-07-19 01:05:12.887258,106,-292.9,-0.1989,-0.0456,1.0632
106_2,2025-07-19 01:05:12.987258,106,-292.9,-0.1723,0.0375,1.0563
106_3,2025-07-19 01:05:13.087258,106,-555.1,-0.1884,0.1601,1.0581
111_1,2025-07-19 01:05:13.335074,111,-161.8,-0.1264,0.2575,0.9758
111_2,2025-07-19 01:05:13.435074,111,-161.8,0.0053,0.3103,1.0605
111_3,2025-07-19 01:05:13.535074,111,-292.9,-0.0361,0.2895,0.9716
114_1,2025-07-19 01:05:13.630786,114,-555.1,-0.0903,0.288,1.0402
114_2,2025-07-19 01:05:13.730786,114,-686.1,-0.196,0.2199,1.0959
114_3,2025-07-19 01:05:13.830786,114,-686.1,-0.1794,0.1457,1.1037
117_1,2025-07-19 01:05:14.231857,117,-424.0,-0.0253,0.1069,1.1059
117_2,2025-07-19 01:05:14.331857,117,-292.9,0.059,0.0932,1.0593
117_3,2025-07-19 01:05:14.431857,117,-555.1,0.3007,0.0632,1.049
123_1,2025-07-19 01:05:14.534514,123,-161.8,0.4519,0.0185,1.041
123_2,2025-07-19 01:05:14.634514,123,-292.9,0.3315,0.0456,0.9885
123_3,2025-07-19 01:05:14.734514,123,-424.0,0.3662,0.0925,0.9736
126_1,2025-07-19 01:05:14.830964,126,-292.9,0.5368,0.0275,0.853
126_2,2025-07-19 01:05:14.930964,126,-292.9,0.5405,0.0319,0.9448
126_3,2025-07-19 01:05:15.030964,126,-292.9,0.5505,0.051,1.0029
129_1,2025-07-19 01:05:15.131328,129,-555.1,0.4902,0.052,0.9143
129_2,2025-07-19 01:05:15.231328,129,-817.2,0.5019,0.0415,0.9497
129_3,2025-07-19 01:05:15.331328,129,-817.2,0.6674,0.0539,0.8259
138_1,2025-07-19 01:05:16.034791,138,-555.1,0.6745,0.2443,0.8364
138_2,2025-07-19 01:05:16.134791,138,-686.1,0.6301,0.2304,0.7944
138_3,2025-07-19 01:05:16.234791,138,-555.1,0.6833,0.2451,0.7951
141_1,2025-07-19 01:05:16.634626,141,-817.2,0.6809,0.1831,0.8034
141_2,2025-07-19 01:05:16.734626,141,-686.1,0.5019,0.2543,0.9396
141_3,2025-07-19 01:05:16.834626,141,-555.1,0.5407,0.1928,0.9868
144_1,2025-07-19 01:05:16.933266,144,-817.2,0.5241,0.1967,0.9467
144_2,2025-07-19 01:05:17.033266,144,-555.1,0.528,0.2446,0.8752
144_3,2025-07-19 01:05:17.133266,144,-292.9,0.5449,0.216,0.8999
147_1,2025-07-19 01:05:16.933661,147,-292.9,0.6162,0.1643,0.8627
147_2,2025-07-19 01:05:17.033661,147,-424.0,0.5642,0.1479,0.8168
147_3,2025-07-19 01:05:17.133661,147,-555.1,0.6062,0.2121,0.8376
150_1,2025-07-19 01:05:17.232567,150,-555.1,0.592,0.2014,0.8872
150_2,2025-07-19 01:05:17.332567,150,-817.2,0.5561,0.2307,0.9135
150_3,2025-07-19 01:05:17.432567,150,-817.2,0.5334,0.2402,0.8854
153_1,2025-07-19 01:05:17.537636,153,-292.9,0.4621,0.2141,0.9645
153_2,2025-07-19 01:05:17.637636,153,-424.0,0.4169,0.2048,0.9919
153_3,2025-07-19 01:05:17.737636,153,-424.0,0.3706,0.1682,0.9968
156_1,2025-07-19 01:05:17.834889,156,-292.9,0.3225,0.1411,0.9843
156_2,2025-07-19 01:05:17.934889,156,-555.1,0.288,0.1347,1.0166
156_3,2025-07-19 01:05:18.034889,156,-948.3,0.2126,0.0908,1.1174
159_1,2025-07-19 01:05:18.135924,159,-686.1,0.1145,0.1081,1.1181
159_2,2025-07-19 01:05:18.235924,159,-555.1,0.069,0.1113,1.1372
159_3,2025-07-19 01:05:18.335924,159,-555.1,-0.1308,0.2316,1.0039
168_1,2025-07-19 01:05:19.036096,168,-161.8,-0.2878,0.2014,0.965
168_2,2025-07-19 01:05:19.136096,168,-292.9,-0.5124,0.229,0.9604
168_3,2025-07-19 01:05:19.236096,168,-555.1,-0.0676,0.1447,1.1489
171_1,2025-07-19 01:05:19.332023,171,-686.1,-0.3962,0.1621,1.1147
171_2,2025-07-19 01:05:19.432023,171,-424.0,-0.1489,0.0627,1.0532
171_3,2025-07-19 01:05:19.532023,171,-555.1,-0.2741,0.0627,1.1171
174_1,2025-07-19 01:05:19.930206,174,-686.1,-0.1166,0.0019,1.0617
174_2,2025-07-19 01:05:20.030206,174,-686.1,0.1027,0.0009,1.1162
174_3,2025-07-19 01:05:20.130206,174,-686.1,0.0451,-0.0185,1.1301
177_1,2025-07-19 01:05:20.235904,177,-424.0,0.0305,-0.03,1.0422
177_2,2025-07-19 01:05:20.335904,177,-292.9,0.111,-0.0285,1.0942
177_3,2025-07-19 01:05:20.435904,177,-161.8,0.1416,0.0563,1.09
180_1,2025-07-19 01:05:20.236470,180,-161.8,0.1555,0.0153,1.0776
180_2,2025-07-19 01:05:20.336470,180,-424.0,0.2072,0.0131,1.061
180_3,2025-07-19 01:05:20.436470,180,-424.0,0.2558,0.0588,1.0051
189_1,2025-07-19 01:05:21.130192,189,-555.1,0.3237,0.216,0.9924
189_2,2025-07-19 01:05:21.230192,189,-555.1,0.3708,0.2277,1.0097
189_3,2025-07-19 01:05:21.330192,189,-161.8,0.3552,0.2138,0.988
192_1,2025-07-19 01:05:21.431497,192,-30.8,0.3361,0.1508,1.009
192_2,2025-07-19 01:05:21.531497,192,-161.8,0.3613,0.1804,0.9929
192_3,2025-07-19 01:05:21.631497,192,-292.9,0.3454,0.1625,0.9873
195_1,2025-07-19 01:05:21.738491,195,-292.9,0.3415,0.1655,1.0434
195_2,2025-07-19 01:05:21.838491,195,-292.9,0.3557,0.1706,0.9887
195_3,2025-07-19 01:05:21.938491,195,-424.0,0.3879,0.1809,1.03
198_1,2025-07-19 01:05:22.064677,198,-424.0,0.383,0.1577,0.9741
198_2,2025-07-19 01:05:22.164677,198,-817.2,0.3425,0.0983,1.0087
198_3,2025-07-19 01:05:22.264677,198,-1079.3,0.4038,0.0708,1.04
201_1,2025-07-19 01:05:22.336983,201,-948.3,0.3574,0.0834,1.0153
201_2,2025-07-19 01:05:22.436983,201,-292.9,0.3559,0.0458,0.9951
201_3,2025-07-19 01:05:22.536983,201,-161.8,0.3266,0.018,1.0329
204_1,2025-07-19 01:05:22.630202,204,-424.0,0.3449,-0.0285,1.0332
204_2,2025-07-19 01:05:22.730202,204,-424.0,0.249,-0.0656,1.0358
204_3,2025-07-19 01:05:22.830202,204,-424.0,0.3217,-0.0627,1.0419
207_1,2025-07-19 01:05:22.935517,207,-161.8,0.3134,-0.0908,1.0451
207_2,2025-07-19 01:05:23.035517,207,-161.8,0.3356,-0.0795,1.0151
207_3,2025-07-19 01:05:23.135517,207,-424.0,0.3356,-0.1254,1.0312
210_1,2025-07-19 01:05:23.236140,210,-686.1,0.3872,-0.0961,1.0051
210_2,2025-07-19 01:05:23.336140,210,-292.9,0.3491,-0.1066,1.019
210_3,2025-07-19 01:05:23.436140,210,-161.8,0.3171,-0.1362,1.0363
213_1,2025-07-19 01:05:23.535909,213,-161.8,0.2802,-0.1325,1.0366
213_2,2025-07-19 01:05:23.635909,213,-292.9,0.2626,-0.1423,1.0263
213_3,2025-07-19 01:05:23.735909,213,-424.0,0.2072,0.0031,1.0249
216_1,2025-07-19 01:05:23.832594,216,-424.0,0.2302,-0.1352,1.0676
216_2,2025-07-19 01:05:23.932594,216,-424.0,0.2685,-0.1232,1.0681
216_3,2025-07-19 01:05:24.032594,216,-555.1,0.3085,-0.1076,1.0266
219_1,2025-07-19 01:05:24.131721,219,-686.1,0.3437,-0.1062,1.0253
219_2,2025-07-19 01:05:24.231721,219,-292.9,0.392,-0.0957,0.989
219_3,2025-07-19 01:05:24.331721,219,-292.9,0.3198,0.0126,1.0456
222_1,2025-07-19 01:05:24.432684,222,-292.9,0.3771,-0.0388,0.9575
222_2,2025-07-19 01:05:24.532684,222,-424.0,0.3845,-0.0791,1.0148
222_3,2025-07-19 01:05:24.632684,222,-686.1,0.4079,-0.0615,1.0065
225_1,2025-07-19 01:05:24.737468,225,-817.2,0.4392,-0.0832,0.9926
225_2,2025-07-19 01:05:24.837468,225,-817.2,0.4533,-0.0837,1.2062
225_3,2025-07-19 01:05:24.937468,225,-555.1,0.3381,0.0639,0.9055
228_1,2025-07-19 01:05:25.036877,228,-817.2,0.3818,-0.0148,0.9763
228_2,2025-07-19 01:05:25.136877,228,-948.3,0.3098,-0.0532,1.0488
228_3,2025-07-19 01:05:25.236877,228,-686.1,0.2045,-0.0231,1.1113
231_1,2025-07-19 01:05:25.336270,231,-817.2,0.2998,0.0036,1.0222
231_2,2025-07-19 01:05:25.436270,231,-686.1,0.248,-0.0312,1.0739
231_3,2025-07-19 01:05:25.536270,231,-424.0,0.1589,-0.0224,1.0332
234_1,2025-07-19 01:05:25.633357,234,-817.2,0.2031,-0.0725,1.0354
234_2,2025-07-19 01:05:25.733357,234,-686.1,0.1118,0.0173,1.0261
234_3,2025-07-19 01:05:25.833357,234,-686.1,0.1469,0.0917,1.0568
237_1,2025-07-19 01:05:25.934945,237,-686.1,0.1115,0.0871,1.0493
237_2,2025-07-19 01:05:26.034945,237,-686.1,0.2382,0.0979,1.0764
237_3,2025-07-19 01:05:26.134945,237,-686.1,0.2768,0.0964,1.0266
240_1,2025-07-19 01:05:26.233204,240,-161.8,0.1254,0.1228,1.0646
240_2,2025-07-19 01:05:26.333204,240,-161.8,0.2312,0.1428,1.0595
240_3,2025-07-19 01:05:26.433204,240,-161.8,0.2163,0.1206,1.0461
246_1,2025-07-19 01:05:26.833340,246,-292.9,0.0993,0.1323,1.0749
246_2,2025-07-19 01:05:26.933340,246,-555.1,0.1574,0.1413,1.0629
246_3,2025-07-19 01:05:27.033340,246,-686.1,0.1818,0.1706,1.0588
252_1,2025-07-19 01:05:27.434168,252,-555.1,0.2114,0.155,1.0671
252_2,2025-07-19 01:05:27.534168,252,-424.0,0.1972,0.1552,1.0764
252_3,2025-07-19 01:05:27.634168,252,-292.9,0.2646,0.1169,1.0859
255_1,2025-07-19 01:05:27.737164,255,-161.8,0.175,0.1271,1.0529
255_2,2025-07-19 01:05:27.837164,255,-161.8,0.1748,0.091,1.0688
255_3,2025-07-19 01:05:27.937164,255,-555.1,0.1569,0.0541,1.0559
5_1,2025-07-19 01:05:28.329903,5,-424.0,0.1445,-0.0219,1.0769
5_2,2025-07-19 01:05:28.429903,5,-292.9,0.1267,-0.0524,1.0729
5_3,2025-07-19 01:05:28.529903,5,-555.1,0.1481,-0.0749,1.0139
8_1,2025-07-19 01:05:28.936318,8,-424.0,0.1718,-0.0817,1.0734
8_2,2025-07-19 01:05:29.036318,8,-686.1,0.2355,-0.0783,1.0366
8_3,2025-07-19 01:05:29.136318,8,-555.1,0.2739,-0.0612,1.0571
11_1,2025-07-19 01:05:28.936852,11,-30.8,0.2438,-0.0434,1.0473
11_2,2025-07-19 01:05:29.036852,11,-161.8,0.2165,-0.0258,1.0651
11_3,2025-07-19 01:05:29.136852,11,-161.8,0.2092,-0.0312,1.0756
14_1,2025-07-19 01:05:29.229331,14,-424.0,0.1777,-0.0195,1.0871
14_2,2025-07-19 01:05:29.329331,14,-555.1,0.2019,0.0017,1.0646
14_3,2025-07-19 01:05:29.429331,14,-424.0,0.1992,0.0329,1.0778
17_1,2025-07-19 01:05:29.537574,17,-292.9,0.1428,-0.0104,1.0646
17_2,2025-07-19 01:05:29.637574,17,-292.9,0.1271,-0.0588,1.0729
17_3,2025-07-19 01:05:29.737574,17,-424.0,0.1,-0.0441,1.0778
20_1,2025-07-19 01:05:29.836531,20,-424.0,0.0395,-0.0683,1.1291
20_2,2025-07-19 01:05:29.936531,20,-424.0,-0.008,-0.0944,1.0959
20_3,2025-07-19 01:05:30.036531,20,-555.1,-0.0327,-0.091,1.0761
23_1,2025-07-19 01:05:30.134265,23,-424.0,-0.0905,-0.1074,1.0527
23_2,2025-07-19 01:05:30.234265,23,-555.1,-0.061,-0.1025,1.06
23_3,2025-07-19 01:05:30.334265,23,-686.1,-0.1157,-0.0678,1.0732
26_1,2025-07-19 01:05:30.436539,26,-292.9,-0.1313,-0.038,1.0527
26_2,2025-07-19 01:05:30.536539,26,-30.8,-0.1706,-0.02,1.1091
26_3,2025-07-19 01:05:30.636539,26,-424.0,-0.2404,0.0646,1.018
32_1,2025-07-19 01:05:31.032450,32,-424.0,-0.2421,0.0988,1.0466
32_2,2025-07-19 01:05:31.132450,32,-292.9,-0.1652,0.0373,1.0681
32_3,2025-07-19 01:05:31.232450,32,-424.0,-0.0769,0.0378,1.0727
35_1,2025-07-19 01:05:31.335558,35,-292.9,-0.0622,0.0249,1.0729
35_2,2025-07-19 01:05:31.435558,35,-292.9,-0.0385,0.0249,1.0839
35_3,2025-07-19 01:05:31.535558,35,-292.9,-0.0241,0.0334,1.0952
38_1,2025-07-19 01:05:31.637593,38,-292.9,0.008,0.0429,1.0549
38_2,2025-07-19 01:05:31.737593,38,-424.0,-0.0053,0.0549,1.069
38_3,2025-07-19 01:05:31.837593,38,-555.1,0.0163,0.0549,1.0727
41_1,2025-07-19 01:05:31.930143,41,-292.9,0.0432,0.082,1.0759
41_2,2025-07-19 01:05:32.030143,41,-555.1,0.0537,0.0937,1.0808
41_3,2025-07-19 01:05:32.130143,41,-555.1,0.0417,0.0751,1.0747
44_1,2025-07-19 01:05:32.231617,44,-292.9,0.0568,0.0886,1.0654
44_2,2025-07-19 01:05:32.331617,44,-424.0,0.1005,0.1088,1.0747
44_3,2025-07-19 01:05:32.431617,44,-424.0,0.0285,0.143,1.0988
47_1,2025-07-19 01:05:32.534486,47,-292.9,0.031,0.1494,1.0502
47_2,2025-07-19 01:05:32.634486,47,-555.1,0.0373,0.1494,1.0449
47_3,2025-07-19 01:05:32.734486,47,-686.1,0.0239,0.1584,1.0795
50_1,2025-07-19 01:05:32.835583,50,-817.2,0.0788,0.1474,1.0939
50_2,2025-07-19 01:05:32.935583,50,-686.1,0.0417,0.1335,1.0874
50_3,2025-07-19 01:05:33.035583,50,-424.0,0.0439,0.1242,1.0854
53_1,2025-07-19 01:05:33.133353,53,-424.0,0.0053,0.1311,1.0766
53_2,2025-07-19 01:05:33.233353,53,-686.1,-0.007,0.1462,1.0791
53_3,2025-07-19 01:05:33.333353,53,-686.1,-0.1079,0.1508,1.052
56_1,2025-07-19 01:05:33.439553,56,-424.0,-0.2773,0.1372,1.0224
56_2,2025-07-19 01:05:33.539553,56,-686.1,-0.2656,0.1235,1.0446
56_3,2025-07-19 01:05:33.639553,56,-424.0,-0.2419,0.1186,1.0585
59_1,2025-07-19 01:05:33.733219,59,-292.9,-0.205,0.1228,1.031
59_2,2025-07-19 01:05:33.833219,59,-555.1,-0.2084,0.1042,1.0939
59_3,2025-07-19 01:05:33.933219,59,-424.0,-0.196,0.1115,1.062
68_1,2025-07-19 01:05:34.633380,68,-30.8,-0.0866,0.0869,1.0803
68_2,2025-07-19 01:05:34.733380,68,-161.8,-0.0974,0.0812,1.0703
68_3,2025-07-19 01:05:34.833380,68,-555.1,-0.0666,0.0773,1.0563
71_1,2025-07-19 01:05:34.934660,71,-555.1,-0.0952,0.0988,1.0786
71_2,2025-07-19 01:05:35.034660,71,-555.1,-0.0812,0.0993,1.0087
71_3,2025-07-19 01:05:35.134660,71,-424.0,-0.0119,0.0756,1.0815
74_1,2025-07-19 01:05:35.234476,74,-161.8,0.0092,0.0991,1.103
74_2,2025-07-19 01:05:35.334476,74,100.3,-0.0668,0.1257,1.1174
74_3,2025-07-19 01:05:35.434476,74,-292.9,-0.0708,0.0817,1.0625
80_1,2025-07-19 01:05:35.837103,80,-292.9,-0.0712,0.124,1.0725
80_2,2025-07-19 01:05:35.937103,80,-292.9,-0.0463,0.1076,1.0437
80_3,2025-07-19 01:05:36.037103,80,-555.1,-0.0886,0.1201,1.0649
83_1,2025-07-19 01:05:36.133959,83,-948.3,-0.1589,0.1257,1.0588
83_2,2025-07-19 01:05:36.233959,83,-686.1,-0.1679,0.1306,1.0527
83_3,2025-07-19 01:05:36.333959,83,-292.9,-0.1516,0.1306,1.0734
92_1,2025-07-19 01:05:37.030551,92,-424.0,-0.3061,0.1608,0.9987
92_2,2025-07-19 01:05:37.130551,92,-555.1,-0.2329,0.1193,1.0078
92_3,2025-07-19 01:05:37.230551,92,-686.1,-0.1069,0.06,1.1184
101_1,2025-07-19 01:05:37.933773,101,-424.0,0.2517,0.1669,1.0024
101_2,2025-07-19 01:05:38.033773,101,-161.8,0.2575,0.2597,1.0268
101_3,2025-07-19 01:05:38.133773,101,-424.0,0.239,0.3005,1.0283
104_1,2025-07-19 01:05:38.232037,104,-686.1,0.2241,0.2727,1.0444
104_2,2025-07-19 01:05:38.332037,104,-555.1,0.2045,0.2177,1.0354
104_3,2025-07-19 01:05:38.432037,104,-424.0,0.2355,0.1953,1.0351
107_1,2025-07-19 01:05:38.532459,107,-424.0,0.269,0.1943,1.0251
107_2,2025-07-19 01:05:38.632459,107,-424.0,0.2673,0.2011,0.9904
107_3,2025-07-19 01:05:38.732459,107,-30.8,0.3229,0.2583,1.0075
113_1,2025-07-19 01:05:39.135257,113,-555.1,0.2165,0.2729,1.0295
113_2,2025-07-19 01:05:39.235257,113,-292.9,0.2128,0.2851,1.0019
113_3,2025-07-19 01:05:39.335257,113,-424.0,0.1831,0.2927,1.0444
119_1,2025-07-19 01:05:39.761853,119,-161.8,0.2612,0.2646,1.0104
119_2,2025-07-19 01:05:39.861853,119,-424.0,0.2487,0.2751,1.0141
119_3,2025-07-19 01:05:39.961853,119,-555.1,0.2385,0.2802,1.0131
122_1,2025-07-19 01:05:40.060505,122,-30.8,0.2446,0.269,0.9982
122_2,2025-07-19 01:05:40.160505,122,100.3,0.2644,0.2883,1.0131
122_3,2025-07-19 01:05:40.260505,122,-161.8,0.2824,0.2802,1.0366
125_1,2025-07-19 01:05:40.333513,125,-292.9,0.289,0.2834,1.0334
125_2,2025-07-19 01:05:40.433513,125,-292.9,0.2966,0.31,0.9736
125_3,2025-07-19 01:05:40.533513,125,-161.8,0.2421,0.2465,1.0058
128_1,2025-07-19 01:05:40.635927,128,-292.9,0.2404,0.2072,1.0754
128_2,2025-07-19 01:05:40.735927,128,-686.1,0.257,0.1882,1.0251
128_3,2025-07-19 01:05:40.835927,128,-555.1,0.2739,0.0673,1.0402
134_1,2025-07-19 01:05:41.268373,134,-292.9,0.3046,0.1276,1.0375
134_2,2025-07-19 01:05:41.368373,134,-424.0,0.3281,0.1291,0.978
134_3,2025-07-19 01:05:41.468373,134,-686.1,0.2683,0.031,1.0629
137_1,2025-07-19 01:05:41.530780,137,-292.9,0.2448,-0.0461,1.0642
137_2,2025-07-19 01:05:41.630780,137,-555.1,0.3344,-0.1213,1.114
137_3,2025-07-19 01:05:41.730780,137,-555.1,-0.0104,-0.0917,1.0837
140_1,2025-07-19 01:05:41.831706,140,-161.8,0.0664,0.0324,1.0954
140_2,2025-07-19 01:05:41.931706,140,-424.0,0.0302,0.1142,1.0214
140_3,2025-07-19 01:05:42.031706,140,-424.0,-0.0729,0.2297,0.8979
143_1,2025-07-19 01:05:42.133231,143,-292.9,-0.0012,0.1394,1.1501
143_2,2025-07-19 01:05:42.233231,143,-292.9,-0.1101,0.0957,1.0458
143_3,2025-07-19 01:05:42.333231,143,-555.1,-0.2065,0.1218,1.0141
146_1,2025-07-19 01:05:42.436468,146,-292.9,-0.1052,0.1899,0.9731
146_2,2025-07-19 01:05:42.536468,146,-161.8,-0.194,0.1655,1.04
146_3,2025-07-19 01:05:42.636468,146,-292.9,-0.1372,0.1142,1.0778
149_1,2025-07-19 01:05:42.735267,149,-292.9,-0.2014,0.0754,1.1159
149_2,2025-07-19 01:05:42.835267,149,-686.1,-0.1662,0.1047,0.9995
149_3,2025-07-19 01:05:42.935267,149,-686.1,-0.1101,0.0488,1.1105
152_1,2025-07-19 01:05:43.031025,152,-424.0,-0.1906,0.0424,1.0646
152_2,2025-07-19 01:05:43.131025,152,-424.0,-0.1633,0.0058,1.0734
152_3,2025-07-19 01:05:43.231025,152,-30.8,-0.0974,0.0104,1.0986
155_1,2025-07-19 01:05:43.633443,155,-292.9,-0.0937,0.0747,1.0754
155_2,2025-07-19 01:05:43.733443,155,-424.0,-0.0654,0.1372,1.02
155_3,2025-07-19 01:05:43.833443,155,-292.9,-0.0166,0.1918,1.0471
158_1,2025-07-19 01:05:43.929274,158,-555.1,-0.0458,0.1525,1.0229
158_2,2025-07-19 01:05:44.029274,158,-555.1,0.0051,0.1479,1.0185
158_3,2025-07-19 01:05:44.129274,158,-161.8,-0.0239,0.1281,1.051
161_1,2025-07-19 01:05:43.931550,161,-292.9,-0.0158,0.0866,1.0937
161_2,2025-07-19 01:05:44.031550,161,-555.1,-0.0205,0.0532,1.0708
161_3,2025-07-19 01:05:44.131550,161,-555.1,-0.0144,0.0678,1.0856
164_1,2025-07-19 01:05:44.238806,164,-292.9,-0.0017,0.0686,1.0795
164_2,2025-07-19 01:05:44.338806,164,-30.8,-0.0166,0.0629,1.0825
164_3,2025-07-19 01:05:44.438806,164,-161.8,-0.0112,0.0563,1.0749
167_1,2025-07-19 01:05:44.532801,167,-424.0,-0.0122,0.0727,1.0922
167_2,2025-07-19 01:05:44.632801,167,-424.0,-0.0087,0.069,1.0864
167_3,2025-07-19 01:05:44.732801,167,-161.8,-0.0041,0.0756,1.0681
170_1,2025-07-19 01:05:44.828718,170,-161.8,-0.0197,0.0744,1.0715
170_2,2025-07-19 01:05:44.928718,170,-30.8,-0.0107,0.0676,1.0644
170_3,2025-07-19 01:05:45.028718,170,-161.8,-0.0148,0.0629,1.0751
176_1,2025-07-19 01:05:45.431153,176,-948.3,-0.0197,0.0473,1.0791
176_2,2025-07-19 01:05:45.531153,176,-948.3,-0.0061,0.0395,1.0773
176_3,2025-07-19 01:05:45.631153,176,-292.9,-0.0219,0.0461,1.0849
179_1,2025-07-19 01:05:45.736046,179,-424.0,-0.0344,0.0449,1.0773
179_2,2025-07-19 01:05:45.836046,179,-424.0,-0.0114,0.0351,1.08
179_3,2025-07-19 01:05:45.936046,179,-292.9,-0.0266,0.0483,1.0827
182_1,2025-07-19 01:05:46.031000,182,-424.0,-0.0217,0.0415,1.0766
182_2,2025-07-19 01:05:46.131000,182,-161.8,-0.0209,0.0354,1.0847
182_3,2025-07-19 01:05:46.231000,182,-292.9,-0.0224,0.0458,1.0786
188_1,2025-07-19 01:05:46.636480,188,-161.8,-0.0151,0.0749,1.0983
188_2,2025-07-19 01:05:46.736480,188,-292.9,0.0275,0.0383,0.9462
188_3,2025-07-19 01:05:46.836480,188,-424.0,-0.0168,0.0332,1.0881
191_1,2025-07-19 01:05:46.936616,191,-555.1,0.0434,0.0556,1.0371
191_2,2025-07-19 01:05:47.036616,191,-424.0,-0.0537,0.0053,1.1042
191_3,2025-07-19 01:05:47.136616,191,-686.1,-0.0102,0.0463,1.0852
197_1,2025-07-19 01:05:47.535487,197,-424.0,-0.0061,0.0695,1.0712
197_2,2025-07-19 01:05:47.635487,197,-292.9,-0.0236,0.0698,1.0793
197_3,2025-07-19 01:05:47.735487,197,-292.9,0.0043,0.1137,1.0847
200_1,2025-07-19 01:05:47.837785,200,-292.9,-0.0014,0.1127,1.0913
200_2,2025-07-19 01:05:47.937785,200,-161.8,0.0021,0.1179,1.0996
200_3,2025-07-19 01:05:48.037785,200,-424.0,-0.0039,0.1025,1.0932
203_1,2025-07-19 01:05:48.133950,203,-555.1,-0.0314,0.155,1.069
203_2,2025-07-19 01:05:48.233950,203,-424.0,-0.0424,0.144,1.0324
203_3,2025-07-19 01:05:48.333950,203,-424.0,-0.0393,0.0847,1.0849
206_1,2025-07-19 01:05:48.435005,206,-161.8,-0.1315,0.0441,1.0144
206_2,2025-07-19 01:05:48.535005,206,-424.0,-0.2187,0.0434,1.1281
206_3,2025-07-19 01:05:48.635005,206,-424.0,-0.2207,0.0083,1.091
209_1,2025-07-19 01:05:48.729110,209,-555.1,-0.1274,0.0065,1.0551
209_2,2025-07-19 01:05:48.829110,209,-686.1,-0.1098,-0.06,1.104
209_3,2025-07-19 01:05:48.929110,209,-292.9,-0.0014,-0.1079,1.0449
212_1,2025-07-19 01:05:49.634506,212,-424.0,-0.0727,-0.1933,1.0793
212_2,2025-07-19 01:05:49.734506,212,-817.2,-0.2153,-0.3413,1.0971
212_3,2025-07-19 01:05:49.834506,212,-817.2,-0.1274,-0.3322,1.0004
218_1,2025-07-19 01:05:49.634930,218,-30.8,-0.4704,-0.1035,1.0017
218_2,2025-07-19 01:05:49.734930,218,-30.8,-0.1875,-0.0856,0.9472
218_3,2025-07-19 01:05:49.834930,218,-161.8,-0.3508,-0.1428,1.1096
221_1,2025-07-19 01:05:49.935506,221,-555.1,-0.3186,-0.1357,1.0393
221_2,2025-07-19 01:05:50.035506,221,-948.3,-0.1928,-0.0319,1.0019
221_3,2025-07-19 01:05:50.135506,221,-555.1,-0.1027,-0.049,0.9929
224_1,2025-07-19 01:05:50.230169,224,-161.8,0.0012,-0.1616,1.2192
224_2,2025-07-19 01:05:50.330169,224,-161.8,0.1572,-0.1662,1.0273
224_3,2025-07-19 01:05:50.430169,224,-292.9,-0.02,-0.1074,1.0156
230_1,2025-07-19 01:05:51.133887,230,-424.0,-0.2102,-0.0385,1.0102
230_2,2025-07-19 01:05:51.233887,230,-555.1,-0.1176,-0.1149,1.1516
230_3,2025-07-19 01:05:51.333887,230,-424.0,0.0075,-0.0346,1.0705
233_1,2025-07-19 01:05:51.134264,233,-292.9,0.0144,-0.0573,1.0266
233_2,2025-07-19 01:05:51.234264,233,-424.0,0.1572,-0.072,1.1264
233_3,2025-07-19 01:05:51.334264,233,-817.2,0.0881,0.0585,0.9912
237_1,2025-07-19 01:05:51.504581,237,-292.9,0.1635,0.0583,1.0322
237_2,2025-07-19 01:05:51.604581,237,-30.8,0.1184,-0.0043,1.0659
237_3,2025-07-19 01:05:51.704581,237,-30.8,0.2651,-0.0515,1.0534
240_1,2025-07-19 01:05:51.803263,240,-30.8,0.2556,-0.1103,1.0681
240_2,2025-07-19 01:05:51.903263,240,-292.9,0.2517,-0.1301,1.0461
240_3,2025-07-19 01:05:52.003263,240,-424.0,0.2392,-0.1154,1.0551
243_1,2025-07-19 01:05:52.101932,243,-292.9,0.3085,-0.1845,1.0065
243_2,2025-07-19 01:05:52.201932,243,-292.9,0.3088,-0.1413,1.0637
243_3,2025-07-19 01:05:52.301932,243,-292.9,0.2773,-0.0969,0.9965
246_1,2025-07-19 01:05:52.404984,246,-424.0,0.3132,-0.1127,1.0419
246_2,2025-07-19 01:05:52.504984,246,-424.0,0.2976,-0.1176,1.0288
246_3,2025-07-19 01:05:52.604984,246,-161.8,0.3076,-0.135,1.0207
249_1,2025-07-19 01:05:52.704318,249,100.3,0.3144,-0.0998,1.0046
249_2,2025-07-19 01:05:52.804318,249,-30.8,0.3457,-0.1528,1.0498
249_3,2025-07-19 01:05:52.904318,249,-30.8,0.2683,-0.1132,0.9943
252_1,2025-07-19 01:05:53.002619,252,-161.8,0.3439,-0.1403,1.0244
252_2,2025-07-19 01:05:53.102619,252,-161.8,0.2934,-0.1313,1.0292
252_3,2025-07-19 01:05:53.202619,252,-30.8,0.3283,-0.1296,1.0061
255_1,2025-07-19 01:05:53.304680,255,-30.8,0.3166,-0.135,1.0302
255_2,2025-07-19 01:05:53.404680,255,-292.9,0.3388,-0.1491,1.0327
255_3,2025-07-19 01:05:53.504680,255,-161.8,0.3176,-0.1481,1.0053
2_1,2025-07-19 01:05:53.602307,2,-30.8,0.3271,-0.1523,1.0175
2_2,2025-07-19 01:05:53.702307,2,-161.8,0.3251,-0.1572,1.0197
2_3,2025-07-19 01:05:53.802307,2,-161.8,0.3249,-0.1684,1.0097
5_1,2025-07-19 01:05:53.902964,5,-161.8,0.32,-0.1494,1.0227
5_2,2025-07-19 01:05:54.002964,5,-424.0,0.3395,-0.1699,1.0334
5_3,2025-07-19 01:05:54.102964,5,-30.8,0.3251,-0.1647,1.0246
8_1,2025-07-19 01:05:54.234032,8,100.3,0.3273,-0.1657,1.0166
8_2,2025-07-19 01:05:54.334032,8,-30.8,0.3344,-0.1547,1.0219
8_3,2025-07-19 01:05:54.434032,8,100.3,0.3093,-0.1713,1.0034
11_1,2025-07-19 01:05:54.503071,11,-161.8,0.3298,-0.1625,1.0109
11_2,2025-07-19 01:05:54.603071,11,-30.8,0.3312,-0.1865,1.0231
11_3,2025-07-19 01:05:54.703071,11,-161.8,0.3227,-0.1738,1.01
14_1,2025-07-19 01:05:54.803375,14,-686.1,0.3283,-0.1821,1.0263
14_2,2025-07-19 01:05:54.903375,14,-555.1,0.3295,-0.1777,1.0173
14_3,2025-07-19 01:05:55.003375,14,-424.0,0.3249,-0.1872,0.9941
17_1,2025-07-19 01:05:55.104556,17,-292.9,0.342,-0.1831,1.0078
17_2,2025-07-19 01:05:55.204556,17,-292.9,0.321,-0.185,1.0187
17_3,2025-07-19 01:05:55.304556,17,-30.8,0.3408,-0.184,1.0156
20_1,2025-07-19 01:05:55.434455,20,362.4,0.3276,-0.1962,1.0109
20_2,2025-07-19 01:05:55.534455,20,231.4,0.333,-0.2006,0.9973
20_3,2025-07-19 01:05:55.634455,20,-30.8,0.3259,-0.186,1.0097
23_1,2025-07-19 01:05:55.792888,23,-292.9,0.3371,-0.195,0.9992
23_2,2025-07-19 01:05:55.892888,23,-292.9,0.3386,-0.1904,1.0085
23_3,2025-07-19 01:05:55.992888,23,-161.8,0.319,-0.2072,1.007
27_1,2025-07-19 01:05:56.129389,27,100.3,0.3251,-0.2087,1.0202
27_2,2025-07-19 01:05:56.229389,27,-161.8,0.3374,-0.1999,1.0031
27_3,2025-07-19 01:05:56.329389,27,-424.0,0.3322,-0.2138,1.0122
30_1,2025-07-19 01:05:56.402212,30,-292.9,0.3347,-0.2133,1.0056
30_2,2025-07-19 01:05:56.502212,30,-161.8,0.3339,-0.2216,1.0153
30_3,2025-07-19 01:05:56.602212,30,100.3,0.3391,-0.2185,1.0117
33_1,2025-07-19 01:05:56.760504,33,-161.8,0.33,-0.2124,1.0046
33_2,2025-07-19 01:05:56.860504,33,-161.8,0.3381,-0.2167,1.0109
33_3,2025-07-19 01:05:56.960504,33,100.3,0.332,-0.2131,1.0107
36_1,2025-07-19 01:05:57.068058,36,-161.8,0.3312,-0.2121,1.0124
36_2,2025-07-19 01:05:57.168058,36,-686.1,0.3371,-0.2158,0.9938
36_3,2025-07-19 01:05:57.268058,36,-424.0,0.3308,-0.2089,0.9885
39_1,2025-07-19 01:05:57.302166,39,-424.0,0.3405,-0.2246,1.0019
39_2,2025-07-19 01:05:57.402166,39,-555.1,0.3369,-0.2353,1.0209
39_3,2025-07-19 01:05:57.502166,39,-555.1,0.3388,-0.2163,1.007
43_1,2025-07-19 01:05:57.793195,43,-424.0,0.3291,-0.2138,1.0102
43_2,2025-07-19 01:05:57.893195,43,-424.0,0.3403,-0.2192,1.0056
43_3,2025-07-19 01:05:57.993195,43,-686.1,0.3273,-0.2221,1.0102
46_1,2025-07-19 01:05:58.030900,46,-555.1,0.3312,-0.2163,1.0031
46_2,2025-07-19 01:05:58.130900,46,-292.9,0.3391,-0.2272,1.0056
46_3,2025-07-19 01:05:58.230900,46,-817.2,0.333,-0.2221,1.0021
49_1,2025-07-19 01:05:58.338880,49,-686.1,0.3303,-0.2275,1.0029
49_2,2025-07-19 01:05:58.438880,49,-161.8,0.3251,-0.2165,0.9963
49_3,2025-07-19 01:05:58.538880,49,-424.0,0.34,-0.2243,1.0141
52_1,2025-07-19 01:05:58.635031,52,-555.1,0.3395,-0.2216,1.0139
52_2,2025-07-19 01:05:58.735031,52,-292.9,0.3225,-0.2231,0.989
52_3,2025-07-19 01:05:58.835031,52,-424.0,0.3239,-0.2187,0.9919
55_1,2025-07-19 01:05:58.934433,55,-424.0,0.3393,-0.2233,1.0058
55_2,2025-07-19 01:05:59.034433,55,-161.8,0.3317,-0.2326,1.009
55_3,2025-07-19 01:05:59.134433,55,-30.8,0.3439,-0.2165,1.0026
58_1,2025-07-19 01:05:59.233050,58,100.3,0.3229,-0.227,1.0002
58_2,2025-07-19 01:05:59.333050,58,-30.8,0.3354,-0.2231,1.0024
58_3,2025-07-19 01:05:59.433050,58,-292.9,0.3403,-0.225,1.0102
61_1,2025-07-19 01:05:59.535236,61,-424.0,0.3425,-0.2316,1.0085
61_2,2025-07-19 01:05:59.635236,61,-424.0,0.3332,-0.2307,0.9924
61_3,2025-07-19 01:05:59.735236,61,-424.0,0.3369,-0.2341,1.0073
64_1,2025-07-19 01:05:59.830477,64,-161.8,0.3403,-0.2326,1.009
64_2,2025-07-19 01:05:59.930477,64,-30.8,0.3332,-0.2397,0.9948
64_3,2025-07-19 01:06:00.030477,64,100.3,0.3405,-0.2338,0.9909
67_1,2025-07-19 01:06:00.149171,67,-30.8,0.3327,-0.2404,1.0051
67_2,2025-07-19 01:06:00.249171,67,-292.9,0.3415,-0.2553,1.0043
67_3,2025-07-19 01:06:00.349171,67,-161.8,0.3332,-0.2453,0.9936
70_1,2025-07-19 01:06:00.466030,70,-161.8,0.3312,-0.2602,0.996
70_2,2025-07-19 01:06:00.566030,70,-30.8,0.3361,-0.2338,0.977
70_3,2025-07-19 01:06:00.666030,70,-30.8,0.3259,-0.2395,0.9729
73_1,2025-07-19 01:06:00.737450,73,-292.9,0.3479,-0.2478,0.9919
73_2,2025-07-19 01:06:00.837450,73,-424.0,0.3391,-0.2514,1.0029
73_3,2025-07-19 01:06:00.937450,73,-424.0,0.3386,-0.248,0.9951
76_1,2025-07-19 01:06:01.083537,76,-424.0,0.3305,-0.2451,0.989
76_2,2025-07-19 01:06:01.183537,76,-292.9,0.341,-0.2365,0.9907
76_3,2025-07-19 01:06:01.283537,76,-424.0,0.3347,-0.2451,0.9887
79_1,2025-07-19 01:06:01.329458,79,-686.1,0.3474,-0.2453,1.0021
79_2,2025-07-19 01:06:01.429458,79,-161.8,0.3378,-0.2414,1.0065
79_3,2025-07-19 01:06:01.529458,79,100.3,0.3376,-0.2475,0.9868
83_1,2025-07-19 01:06:01.737497,83,-161.8,0.332,-0.2355,0.9833
83_2,2025-07-19 01:06:01.837497,83,-424.0,0.3454,-0.2419,1.0019
83_3,2025-07-19 01:06:01.937497,83,-424.0,0.3393,-0.2519,1.0041
86_1,2025-07-19 01:06:02.002886,86,-292.9,0.3481,-0.2502,0.9916
86_2,2025-07-19 01:06:02.102886,86,-555.1,0.3293,-0.2441,0.9768
86_3,2025-07-19 01:06:02.202886,86,-555.1,0.3405,-0.2536,0.9882
89_1,2025-07-19 01:06:02.304708,89,-292.9,0.3366,-0.2507,0.9812
89_2,2025-07-19 01:06:02.404708,89,-292.9,0.3403,-0.2558,0.997
89_3,2025-07-19 01:06:02.504708,89,-292.9,0.3422,-0.2526,0.9885
92_1,2025-07-19 01:06:02.603277,92,-424.0,0.3364,-0.2517,0.9799
92_2,2025-07-19 01:06:02.703277,92,-292.9,0.3498,-0.2543,0.9951
92_3,2025-07-19 01:06:02.803277,92,-292.9,0.331,-0.2604,0.9899
95_1,2025-07-19 01:06:02.902962,95,-686.1,0.3447,-0.2702,0.9897
95_2,2025-07-19 01:06:03.002962,95,-686.1,0.3466,-0.258,0.9865
95_3,2025-07-19 01:06:03.102962,95,-686.1,0.3479,-0.2634,0.9851
98_1,2025-07-19 01:06:03.205275,98,-292.9,0.3403,-0.26,0.9885
98_2,2025-07-19 01:06:03.305275,98,100.3,0.3413,-0.2644,0.9875
98_3,2025-07-19 01:06:03.405275,98,-30.8,0.3352,-0.2714,0.9841
101_1,2025-07-19 01:06:03.533279,101,-161.8,0.3542,-0.2668,0.9946
101_2,2025-07-19 01:06:03.633279,101,-292.9,0.3332,-0.2595,0.9887
101_3,2025-07-19 01:06:03.733279,101,-555.1,0.3398,-0.2687,0.9746
104_1,2025-07-19 01:06:03.802116,104,-686.1,0.3342,-0.2673,0.9812
104_2,2025-07-19 01:06:03.902116,104,-555.1,0.3469,-0.2712,0.9929
104_3,2025-07-19 01:06:04.002116,104,-161.8,0.3435,-0.2783,0.9946
107_1,2025-07-19 01:06:04.104848,107,-161.8,0.3371,-0.2697,0.987
107_2,2025-07-19 01:06:04.204848,107,-292.9,0.3425,-0.2687,0.9912
107_3,2025-07-19 01:06:04.304848,107,-292.9,0.3232,-0.2614,0.9833
110_1,2025-07-19 01:06:04.404315,110,-292.9,0.3435,-0.2648,0.9975
110_2,2025-07-19 01:06:04.504315,110,-292.9,0.342,-0.2753,0.9958
110_3,2025-07-19 01:06:04.604315,110,-161.8,0.3356,-0.2609,0.9833
113_1,2025-07-19 01:06:04.701787,113,100.3,0.3354,-0.2617,0.9748
113_2,2025-07-19 01:06:04.801787,113,100.3,0.3383,-0.2619,0.9897
113_3,2025-07-19 01:06:04.901787,113,-424.0,0.3444,-0.2624,0.9807
116_1,2025-07-19 01:06:05.004981,116,-555.1,0.3239,-0.2705,0.9858
116_2,2025-07-19 01:06:05.104981,116,-424.0,0.3493,-0.2673,0.9746
116_3,2025-07-19 01:06:05.204981,116,-161.8,0.3352,-0.2741,0.9919
119_1,2025-07-19 01:06:05.336926,119,-30.8,0.3444,-0.2768,1.0026
119_2,2025-07-19 01:06:05.436926,119,-161.8,0.3398,-0.2739,0.9865
119_3,2025-07-19 01:06:05.536926,119,-30.8,0.3415,-0.2673,0.9755
122_1,2025-07-19 01:06:05.603517,122,-30.8,0.331,-0.2636,0.9711
122_2,2025-07-19 01:06:05.703517,122,-30.8,0.3342,-0.2736,0.9829
122_3,2025-07-19 01:06:05.803517,122,-161.8,0.3393,-0.2812,0.9855
125_1,2025-07-19 01:06:05.905112,125,-292.9,0.331,-0.2814,0.988
125_2,2025-07-19 01:06:06.005112,125,-161.8,0.3376,-0.2778,0.9716
125_3,2025-07-19 01:06:06.105112,125,-292.9,0.3259,-0.2702,0.9831
128_1,2025-07-19 01:06:06.203213,128,-161.8,0.3427,-0.2727,0.978
128_2,2025-07-19 01:06:06.303213,128,-30.8,0.3349,-0.2768,0.9765
128_3,2025-07-19 01:06:06.403213,128,-292.9,0.3327,-0.2792,0.9873
133_1,2025-07-19 01:06:06.736685,133,-161.8,0.3291,-0.2805,0.9736
133_2,2025-07-19 01:06:06.836685,133,-30.8,0.3312,-0.2692,0.9772
133_3,2025-07-19 01:06:06.936685,133,-161.8,0.332,-0.2846,0.9875
136_1,2025-07-19 01:06:07.029622,136,-161.8,0.3339,-0.2805,0.9958
136_2,2025-07-19 01:06:07.129622,136,-30.8,0.3378,-0.2724,0.9938
136_3,2025-07-19 01:06:07.229622,136,-161.8,0.3488,-0.2836,0.9785
139_1,2025-07-19 01:06:07.338590,139,-161.8,0.3278,-0.2805,0.9782
139_2,2025-07-19 01:06:07.438590,139,-424.0,0.3256,-0.279,0.9819
139_3,2025-07-19 01:06:07.538590,139,-424.0,0.3369,-0.2802,0.9694
142_1,2025-07-19 01:06:07.635944,142,-161.8,0.33,-0.2814,0.9753
142_2,2025-07-19 01:06:07.735944,142,-292.9,0.3383,-0.2849,0.9914
142_3,2025-07-19 01:06:07.835944,142,-161.8,0.3337,-0.2851,0.9782
145_1,2025-07-19 01:06:07.931932,145,-161.8,0.3339,-0.2746,0.9777
145_2,2025-07-19 01:06:08.031932,145,-292.9,0.3398,-0.2729,0.9626
145_3,2025-07-19 01:06:08.131932,145,-30.8,0.3439,-0.2805,0.9863
148_1,2025-07-19 01:06:08.238714,148,-161.8,0.3364,-0.279,0.989
148_2,2025-07-19 01:06:08.338714,148,-30.8,0.3359,-0.2839,0.9794
148_3,2025-07-19 01:06:08.438714,148,-30.8,0.3422,-0.2844,0.9926
154_1,2025-07-19 01:06:08.833677,154,-30.8,0.3344,-0.2868,0.9858
154_2,2025-07-19 01:06:08.933677,154,-292.9,0.3386,-0.2897,0.9843
154_3,2025-07-19 01:06:09.033677,154,-292.9,0.3349,-0.2878,0.9846
157_1,2025-07-19 01:06:09.138260,157,-292.9,0.3388,-0.2924,0.9809
157_2,2025-07-19 01:06:09.238260,157,-161.8,0.3308,-0.2819,0.9858
157_3,2025-07-19 01:06:09.338260,157,-161.8,0.3339,-0.2851,0.9843
160_1,2025-07-19 01:06:09.436460,160,-161.8,0.3269,-0.2768,0.9743
160_2,2025-07-19 01:06:09.536460,160,231.4,0.3356,-0.289,0.989
160_3,2025-07-19 01:06:09.636460,160,100.3,0.3352,-0.2851,0.9934
163_1,2025-07-19 01:06:09.733694,163,100.3,0.3356,-0.2797,0.979
163_2,2025-07-19 01:06:09.833694,163,-30.8,0.3491,-0.2863,0.9812
163_3,2025-07-19 01:06:09.933694,163,-161.8,0.3237,-0.2944,0.9997
166_1,2025-07-19 01:06:10.036202,166,100.3,0.3259,-0.2888,0.9836
166_2,2025-07-19 01:06:10.136202,166,-30.8,0.3271,-0.2817,0.9692
166_3,2025-07-19 01:06:10.236202,166,-292.9,0.3308,-0.29,0.9914
172_1,2025-07-19 01:06:10.634199,172,-424.0,0.3354,-0.2941,0.9904
172_2,2025-07-19 01:06:10.734199,172,-161.8,0.3227,-0.2746,1.0051
172_3,2025-07-19 01:06:10.834199,172,-30.8,0.3002,-0.2895,0.9863
175_1,2025-07-19 01:06:10.930449,175,-292.9,0.2697,-0.3244,1.0319
175_2,2025-07-19 01:06:11.030449,175,-292.9,0.2209,-0.2883,1.0112
175_3,2025-07-19 01:06:11.130449,175,-161.8,0.2993,-0.2563,0.8488
178_1,2025-07-19 01:06:11.533470,178,-30.8,0.3032,-0.2067,0.8767
178_2,2025-07-19 01:06:11.633470,178,100.3,0.247,-0.2492,0.9819
178_3,2025-07-19 01:06:11.733470,178,-161.8,0.2932,-0.3388,1.0097
181_1,2025-07-19 01:06:11.534275,181,-424.0,0.267,-0.3376,0.716
181_2,2025-07-19 01:06:11.634275,181,-686.1,0.2414,-0.2819,1.1318
181_3,2025-07-19 01:06:11.734275,181,-555.1,0.1459,-0.2041,1.1237
184_1,2025-07-19 01:06:11.828989,184,-161.8,0.0883,-0.0168,0.9099
184_2,2025-07-19 01:06:11.928989,184,-30.8,0.0549,0.0317,1.0927
184_3,2025-07-19 01:06:12.028989,184,-30.8,0.0043,0.1198,1.0803
187_1,2025-07-19 01:06:12.130655,187,-161.8,-0.0319,-0.0087,1.0139
187_2,2025-07-19 01:06:12.230655,187,-30.8,0.0192,0.1472,1.156
187_3,2025-07-19 01:06:12.330655,187,-161.8,-0.0319,0.0808,1.0688
190_1,2025-07-19 01:06:12.433267,190,-161.8,0.0625,0.2363,1.0278
190_2,2025-07-19 01:06:12.533267,190,-161.8,0.0615,0.1728,1.0793
190_3,2025-07-19 01:06:12.633267,190,-292.9,-0.0295,0.0378,1.0454
193_1,2025-07-19 01:06:12.737055,193,-161.8,-0.0351,0.0073,1.0146
193_2,2025-07-19 01:06:12.837055,193,-161.8,0.1425,-0.0444,1.1853
193_3,2025-07-19 01:06:12.937055,193,-30.8,0.059,-0.0026,0.9399
196_1,2025-07-19 01:06:13.037149,196,231.4,0.0227,-0.0942,1.1284
196_2,2025-07-19 01:06:13.137149,196,-292.9,-0.124,0.062,1.2656
196_3,2025-07-19 01:06:13.237149,196,-161.8,-0.0334,-0.1162,1.0141
202_1,2025-07-19 01:06:13.632304,202,-292.9,0.041,0.0585,1.0812
202_2,2025-07-19 01:06:13.732304,202,-292.9,-0.0126,0.0427,1.0939
202_3,2025-07-19 01:06:13.832304,202,-161.8,-0.0119,-0.0073,1.0927
205_1,2025-07-19 01:06:13.902776,205,-292.9,0.0124,0.0166,1.0795
205_2,2025-07-19 01:06:14.002776,205,-424.0,-0.0036,0.0078,1.0698
205_3,2025-07-19 01:06:14.102776,205,-292.9,0.0273,0.0017,1.0493
208_1,2025-07-19 01:06:14.233685,208,-30.8,0.0314,0.0734,1.1003
208_2,2025-07-19 01:06:14.333685,208,-161.8,0.0275,-0.0749,1.0388
208_3,2025-07-19 01:06:14.433685,208,100.3,-0.0798,0.09,0.8095
211_1,2025-07-19 01:06:14.530530,211,362.4,-0.07,-0.0166,1.0549
211_2,2025-07-19 01:06:14.630530,211,100.3,0.1889,0.0454,0.7644
211_3,2025-07-19 01:06:14.730530,211,-161.8,-0.0864,0.1076,1.2373
214_1,2025-07-19 01:06:14.831665,214,-292.9,-0.384,0.0798,1.8276
214_2,2025-07-19 01:06:14.931665,214,-30.8,-0.1909,0.0891,1.2836
214_3,2025-07-19 01:06:15.031665,214,231.4,0.0214,-0.0483,1.069
217_1,2025-07-19 01:06:15.135928,217,-292.9,-0.1972,-0.0134,1.5734
217_2,2025-07-19 01:06:15.235928,217,-424.0,-0.1071,0.0209,1.0742
217_3,2025-07-19 01:06:15.335928,217,-292.9,-0.0312,-0.0278,1.0234
220_1,2025-07-19 01:06:15.433162,220,-161.8,-0.0258,-0.0207,1.082
220_2,2025-07-19 01:06:15.533162,220,-30.8,-0.0212,0.0183,1.0754
220_3,2025-07-19 01:06:15.633162,220,-161.8,-0.03,0.0551,1.0842
223_1,2025-07-19 01:06:15.736450,223,-161.8,-0.0217,0.0859,1.1049
223_2,2025-07-19 01:06:15.836450,223,-424.0,-0.0046,0.0566,1.0954
223_3,2025-07-19 01:06:15.936450,223,-555.1,-0.0051,0.038,1.1784
226_1,2025-07-19 01:06:16.034239,226,-30.8,-0.0153,0.0292,1.1289
226_2,2025-07-19 01:06:16.134239,226,100.3,0.0034,0.0537,1.0063
226_3,2025-07-19 01:06:16.234239,226,100.3,0.0092,0.0014,1.0507
232_1,2025-07-19 01:06:16.635366,232,-161.8,-0.062,0.0346,1.1135
232_2,2025-07-19 01:06:16.735366,232,-161.8,-0.0192,0.0336,1.0446
232_3,2025-07-19 01:06:16.835366,232,-555.1,-0.0124,0.0439,1.1093
238_1,2025-07-19 01:06:17.235164,238,-30.8,-0.0209,0.0415,1.0756
238_2,2025-07-19 01:06:17.335164,238,-30.8,-0.0258,0.0581,1.1105
238_3,2025-07-19 01:06:17.435164,238,-161.8,-0.0239,0.031,1.0791
241_1,2025-07-19 01:06:17.529037,241,-161.8,-0.0085,0.0273,1.0808
241_2,2025-07-19 01:06:17.629037,241,-161.8,-0.0202,0.008,1.0751
241_3,2025-07-19 01:06:17.729037,241,100.3,-0.0065,0.0598,1.08
244_1,2025-07-19 01:06:18.134728,244,-30.8,-0.0036,0.0478,1.0793
244_2,2025-07-19 01:06:18.234728,244,-161.8,0.0302,0.0607,1.0935
244_3,2025-07-19 01:06:18.334728,244,-30.8,-0.0109,0.0549,1.0854
247_1,2025-07-19 01:06:18.135130,247,100.3,-0.0266,0.0266,1.0864
247_2,2025-07-19 01:06:18.235130,247,100.3,0.0097,0.0319,1.091
247_3,2025-07-19 01:06:18.335130,247,100.3,-0.0358,0.0249,1.0759
250_1,2025-07-19 01:06:18.431230,250,100.3,-0.0009,0.027,1.07
250_2,2025-07-19 01:06:18.531230,250,-30.8,0.0219,0.0175,1.0837
250_3,2025-07-19 01:06:18.631230,250,-30.8,-0.0017,0.0507,1.0881
253_1,2025-07-19 01:06:18.732846,253,-30.8,-0.0092,0.0341,1.0634
253_2,2025-07-19 01:06:18.832846,253,-292.9,-0.0056,0.0356,1.0795
253_3,2025-07-19 01:06:18.932846,253,-161.8,-0.007,0.0209,1.0871
0_1,2025-07-19 01:06:19.035293,0,-30.8,-0.0307,0.0344,1.0969
0_2,2025-07-19 01:06:19.135293,0,-161.8,0.0041,0.0141,1.0715
0_3,2025-07-19 01:06:19.235293,0,-30.8,0.0068,0.0412,1.0964
6_1,2025-07-19 01:06:19.690384,6,-555.1,-0.0253,0.0185,1.0957
6_2,2025-07-19 01:06:19.790384,6,100.3,-0.0131,0.0419,1.0844
6_3,2025-07-19 01:06:19.890384,6,231.4,0.0385,0.0278,1.0595
9_1,2025-07-19 01:06:19.936541,9,-161.8,0.0346,0.0495,1.0541
9_2,2025-07-19 01:06:20.036541,9,100.3,-0.027,0.0417,1.0805
9_3,2025-07-19 01:06:20.136541,9,-30.8,0.0161,0.0649,1.0793
12_1,2025-07-19 01:06:20.237550,12,-424.0,0.0068,0.0402,1.0812
12_2,2025-07-19 01:06:20.337550,12,-424.0,-0.01,0.0429,1.0874
12_3,2025-07-19 01:06:20.437550,12,-161.8,-0.0107,0.0642,1.0935
15_1,2025-07-19 01:06:20.535943,15,-30.8,0.0102,0.0388,1.0913
15_2,2025-07-19 01:06:20.635943,15,-30.8,0.01,0.0187,1.0883
15_3,2025-07-19 01:06:20.735943,15,100.3,-0.0061,0.0812,1.0722
18_1,2025-07-19 01:06:20.831948,18,100.3,0.0295,0.0495,1.0654
18_2,2025-07-19 01:06:20.931948,18,100.3,-0.0073,0.0456,1.0849
18_3,2025-07-19 01:06:21.031948,18,-161.8,-0.0019,0.0217,1.0815
24_1,2025-07-19 01:06:21.435400,24,-161.8,0.0095,0.0258,1.0803
24_2,2025-07-19 01:06:21.535400,24,-161.8,0.0012,0.0268,1.0808
24_3,2025-07-19 01:06:21.635400,24,-161.8,0.0009,0.039,1.07
27_1,2025-07-19 01:06:21.735357,27,-30.8,0.0058,0.0124,1.0739
27_2,2025-07-19 01:06:21.835357,27,493.5,0.01,0.031,1.0939
27_3,2025-07-19 01:06:21.935357,27,362.4,0.0092,0.0275,1.0812
30_1,2025-07-19 01:06:22.034435,30,231.4,0.0129,0.018,1.0776
30_2,2025-07-19 01:06:22.134435,30,-30.8,0.0119,0.0048,1.0815
30_3,2025-07-19 01:06:22.234435,30,-292.9,-0.0017,0.0249,1.0856
33_1,2025-07-19 01:06:22.337043,33,-161.8,0.0019,0.0324,1.0708
33_2,2025-07-19 01:06:22.437043,33,-161.8,0.0083,0.0295,1.0815
33_3,2025-07-19 01:06:22.537043,33,-30.8,0.0092,0.0378,1.0793
36_1,2025-07-19 01:06:22.629897,36,-30.8,0.02,0.0173,1.0842
36_2,2025-07-19 01:06:22.729897,36,-161.8,0.0134,0.029,1.0749
36_3,2025-07-19 01:06:22.829897,36,-161.8,0.0095,0.0021,1.0837
39_1,2025-07-19 01:06:22.937618,39,-30.8,0.0175,0.0368,1.0747
39_2,2025-07-19 01:06:23.037618,39,231.4,0.0158,0.0273,1.0893
39_3,2025-07-19 01:06:23.137618,39,-30.8,0.0192,0.0319,1.0769
42_1,2025-07-19 01:06:23.232954,42,-292.9,0.0148,0.0231,1.0766
42_2,2025-07-19 01:06:23.332954,42,-161.8,0.0102,0.0422,1.0749
42_3,2025-07-19 01:06:23.432954,42,-292.9,0.01,0.0317,1.0749
45_1,2025-07-19 01:06:23.819026,45,-30.8,0.052,-0.0029,1.0986
45_2,2025-07-19 01:06:23.919026,45,-292.9,0.0126,0.0637,1.0886
45_3,2025-07-19 01:06:24.019026,45,-555.1,0.0002,0.0278,1.081
48_1,2025-07-19 01:06:23.833419,48,-292.9,-0.0041,0.0422,1.0854
48_2,2025-07-19 01:06:23.933419,48,-555.1,-0.0024,0.0395,1.0817
48_3,2025-07-19 01:06:24.033419,48,-292.9,0.02,0.059,1.0893
51_1,2025-07-19 01:06:24.128544,51,-30.8,0.0356,0.0327,1.0737
51_2,2025-07-19 01:06:24.228544,51,-161.8,0.0432,0.0424,1.0659
51_3,2025-07-19 01:06:24.328544,51,-292.9,0.0102,0.0759,1.0876
54_1,2025-07-19 01:06:24.434112,54,-424.0,-0.0263,0.0339,1.0781
54_2,2025-07-19 01:06:24.534112,54,-292.9,0.061,0.0664,1.0778
54_3,2025-07-19 01:06:24.634112,54,100.3,0.0329,0.0212,1.06
57_1,2025-07-19 01:06:25.032103,57,100.3,0.0222,0.0178,1.0629
57_2,2025-07-19 01:06:25.132103,57,-161.8,-0.019,0.0183,1.0588
57_3,2025-07-19 01:06:25.232103,57,-30.8,-0.0036,0.0424,1.0886
60_1,2025-07-19 01:06:25.033071,60,100.3,-0.0065,0.0344,1.083
60_2,2025-07-19 01:06:25.133071,60,100.3,0.0373,0.0371,1.062
60_3,2025-07-19 01:06:25.233071,60,-30.8,0.0109,0.0803,1.1079
63_1,2025-07-19 01:06:25.340504,63,-292.9,-0.0139,0.0639,1.1037
63_2,2025-07-19 01:06:25.440504,63,-161.8,0.0144,0.0371,1.0903
63_3,2025-07-19 01:06:25.540504,63,231.4,0.007,0.0549,1.0744
69_1,2025-07-19 01:06:25.929954,69,-555.1,-0.0078,0.0454,1.0793
69_2,2025-07-19 01:06:26.029954,69,-161.8,-0.0131,0.0546,1.0866
69_3,2025-07-19 01:06:26.129954,69,-161.8,-0.0144,0.027,1.0705
72_1,2025-07-19 01:06:26.235184,72,-424.0,-0.0136,0.0395,1.0847
72_2,2025-07-19 01:06:26.335184,72,-555.1,-0.0146,0.0441,1.0712
72_3,2025-07-19 01:06:26.435184,72,-424.0,-0.0046,0.0439,1.0822
75_1,2025-07-19 01:06:26.538398,75,-424.0,-0.0314,0.0412,1.0925
75_2,2025-07-19 01:06:26.638398,75,-424.0,-0.0563,0.0615,1.125
75_3,2025-07-19 01:06:26.738398,75,-161.8,-0.0112,0.0556,1.0969
78_1,2025-07-19 01:06:26.836884,78,-161.8,-0.0092,0.0781,1.0993
78_2,2025-07-19 01:06:26.936884,78,-30.8,-0.0048,0.0329,1.0769
78_3,2025-07-19 01:06:27.036884,78,-30.8,-0.0061,0.0419,1.0715
81_1,2025-07-19 01:06:27.139376,81,-555.1,0.0056,0.09,1.0942
81_2,2025-07-19 01:06:27.239376,81,-292.9,-0.0231,0.0109,1.0344
81_3,2025-07-19 01:06:27.339376,81,231.4,-0.0061,0.0412,1.049
84_1,2025-07-19 01:06:27.435355,84,-161.8,-0.0017,0.104,1.0993
84_2,2025-07-19 01:06:27.535355,84,-686.1,-0.0029,0.0715,1.0756
84_3,2025-07-19 01:06:27.635355,84,-686.1,-0.0034,0.0756,1.081
87_1,2025-07-19 01:06:27.738615,87,-161.8,0.0051,0.062,1.0776
87_2,2025-07-19 01:06:27.838615,87,-30.8,-0.0029,0.07,1.0786
87_3,2025-07-19 01:06:27.938615,87,-424.0,-0.0002,0.0817,1.0781
90_1,2025-07-19 01:06:28.032421,90,-555.1,-0.0009,0.0808,1.0827
90_2,2025-07-19 01:06:28.132421,90,-30.8,-0.0217,0.0153,1.029
90_3,2025-07-19 01:06:28.232421,90,-30.8,-0.0012,0.0961,1.111
96_1,2025-07-19 01:06:28.630721,96,-292.9,0.0095,0.1171,1.0891
96_2,2025-07-19 01:06:28.730721,96,-161.8,-0.0053,0.0866,1.0854
96_3,2025-07-19 01:06:28.830721,96,-161.8,0.0075,0.0864,1.0588
99_1,2025-07-19 01:06:28.935837,99,-424.0,0.0039,0.0983,1.0605
99_2,2025-07-19 01:06:29.035837,99,-555.1,0.0014,0.1003,1.0737
99_3,2025-07-19 01:06:29.135837,99,-424.0,-0.029,0.0864,1.0407
102_1,2025-07-19 01:06:29.232524,102,-161.8,-0.0048,0.0964,1.0703
102_2,2025-07-19 01:06:29.332524,102,-30.8,0.0007,0.1103,1.059
102_3,2025-07-19 01:06:29.432524,102,-161.8,-0.0095,0.1311,1.0974
105_1,2025-07-19 01:06:29.534996,105,-161.8,-0.0031,0.1396,1.0957
105_2,2025-07-19 01:06:29.634996,105,-424.0,-0.017,0.1335,1.1076
105_3,2025-07-19 01:06:29.734996,105,-555.1,-0.0493,0.1315,0.996
108_1,2025-07-19 01:06:29.836031,108,-424.0,0.0192,0.1447,1.0559
108_2,2025-07-19 01:06:29.936031,108,-292.9,0.092,0.1037,0.979
108_3,2025-07-19 01:06:30.036031,108,-161.8,-0.0119,0.1333,1.0947
111_1,2025-07-19 01:06:30.130841,111,-161.8,-0.0332,0.1857,0.9946
111_2,2025-07-19 01:06:30.230841,111,100.3,0.017,0.2148,0.9255
111_3,2025-07-19 01:06:30.330841,111,100.3,-0.0278,0.2346,1.0759
114_1,2025-07-19 01:06:30.438611,114,-161.8,0.0146,0.2197,0.9982
114_2,2025-07-19 01:06:30.538611,114,-292.9,0.071,0.2626,1.029
114_3,2025-07-19 01:06:30.638611,114,-292.9,0.0156,0.2578,0.9687
120_1,2025-07-19 01:06:31.036806,120,231.4,0.0173,0.2973,1.0288
120_2,2025-07-19 01:06:31.136806,120,362.4,-0.0117,0.3112,1.0405
120_3,2025-07-19 01:06:31.236806,120,-30.8,-0.0166,0.3503,1.0441
123_1,2025-07-19 01:06:31.335255,123,-30.8,0.0537,0.332,1.019
123_2,2025-07-19 01:06:31.435255,123,-161.8,0.007,0.3315,1.0178
123_3,2025-07-19 01:06:31.535255,123,-292.9,0.0061,0.3295,1.0268
126_1,2025-07-19 01:06:31.633586,126,-161.8,-0.0078,0.3254,1.0075
126_2,2025-07-19 01:06:31.733586,126,-292.9,-0.0109,0.3488,1.0285
126_3,2025-07-19 01:06:31.833586,126,-292.9,0.0112,0.35,0.997
132_1,2025-07-19 01:06:32.237641,132,-30.8,-0.0053,0.353,1.0178
132_2,2025-07-19 01:06:32.337641,132,-30.8,-0.0058,0.362,1.0205
132_3,2025-07-19 01:06:32.437641,132,-30.8,-0.0068,0.3583,1.009
135_1,2025-07-19 01:06:32.533494,135,-30.8,-0.0046,0.3652,1.007
135_2,2025-07-19 01:06:32.633494,135,-161.8,-0.0068,0.3596,1.0156
135_3,2025-07-19 01:06:32.733494,135,-292.9,-0.0065,0.3642,1.0156
138_1,2025-07-19 01:06:32.836508,138,-424.0,-0.0021,0.3605,1.0151
138_2,2025-07-19 01:06:32.936508,138,-161.8,-0.0053,0.3645,1.0117
138_3,2025-07-19 01:06:33.036508,138,231.4,-0.0007,0.361,1.0017
144_1,2025-07-19 01:06:33.433406,144,-424.0,-0.0026,0.3645,1.0146
144_2,2025-07-19 01:06:33.533406,144,-292.9,-0.0063,0.3608,1.0168
144_3,2025-07-19 01:06:33.633406,144,-161.8,-0.0073,0.3627,1.0075
147_1,2025-07-19 01:06:33.736370,147,-161.8,-0.007,0.3635,1.0168
147_2,2025-07-19 01:06:33.836370,147,-161.8,-0.0056,0.3681,1.0097
147_3,2025-07-19 01:06:33.936370,147,-292.9,-0.0043,0.3613,1.0109
150_1,2025-07-19 01:06:34.030911,150,-424.0,-0.0034,0.3627,1.0129
150_2,2025-07-19 01:06:34.130911,150,-292.9,-0.0019,0.3613,1.0144
150_3,2025-07-19 01:06:34.230911,150,-161.8,-0.0043,0.3623,1.0124
153_1,2025-07-19 01:06:34.332917,153,-30.8,-0.0065,0.3615,1.0141
153_2,2025-07-19 01:06:34.432917,153,-292.9,-0.0056,0.3593,1.0085
153_3,2025-07-19 01:06:34.532917,153,-424.0,-0.0014,0.362,1.0153
156_1,2025-07-19 01:06:34.890928,156,-161.8,-0.0026,0.3581,1.0104
156_2,2025-07-19 01:06:34.990928,156,-161.8,-0.0051,0.3579,1.0102
156_3,2025-07-19 01:06:35.090928,156,-292.9,-0.0043,0.362,1.0148
159_1,2025-07-19 01:06:34.903242,159,-292.9,-0.007,0.3605,1.0173
159_2,2025-07-19 01:06:35.003242,159,-424.0,-0.0029,0.3603,1.0112
159_3,2025-07-19 01:06:35.103242,159,-555.1,-0.0009,0.3615,1.017
162_1,2025-07-19 01:06:35.232552,162,-161.8,-0.0039,0.3581,1.0097
162_2,2025-07-19 01:06:35.332552,162,-292.9,-0.0034,0.3608,1.0126
162_3,2025-07-19 01:06:35.432552,162,-424.0,-0.0019,0.3583,1.0109
168_1,2025-07-19 01:06:35.830656,168,-424.0,-0.0073,0.3637,1.0161
168_2,2025-07-19 01:06:35.930656,168,-30.8,-0.0043,0.3579,1.0197
168_3,2025-07-19 01:06:36.030656,168,-30.8,-0.0021,0.3603,1.0107
171_1,2025-07-19 01:06:36.136420,171,231.4,-0.0065,0.3605,1.0192
171_2,2025-07-19 01:06:36.236420,171,231.4,-0.0063,0.3623,1.0126
171_3,2025-07-19 01:06:36.336420,171,-292.9,-0.0029,0.3603,1.018
174_1,2025-07-19 01:06:36.429978,174,-161.8,-0.0065,0.362,1.0146
174_2,2025-07-19 01:06:36.529978,174,-161.8,-0.0036,0.3618,1.0175
174_3,2025-07-19 01:06:36.629978,174,-161.8,-0.0024,0.3625,1.017
177_1,2025-07-19 01:06:36.738374,177,100.3,-0.0063,0.3623,1.0146
177_2,2025-07-19 01:06:36.838374,177,-292.9,-0.0051,0.3618,1.008
177_3,2025-07-19 01:06:36.938374,177,-161.8,-0.0053,0.3605,1.0122
180_1,2025-07-19 01:06:37.040126,180,-30.8,-0.0017,0.3647,1.0134
180_2,2025-07-19 01:06:37.140126,180,-161.8,-0.0004,0.363,1.0134
180_3,2025-07-19 01:06:37.240126,180,100.3,-0.0102,0.3625,1.0141
183_1,2025-07-19 01:06:37.330158,183,-161.8,-0.0063,0.363,1.0107
183_2,2025-07-19 01:06:37.430158,183,-424.0,-0.0065,0.3605,1.0187
183_3,2025-07-19 01:06:37.530158,183,-292.9,-0.0039,0.3608,1.0102
186_1,2025-07-19 01:06:37.633274,186,-292.9,-0.0068,0.3608,1.0161
186_2,2025-07-19 01:06:37.733274,186,-292.9,-0.0021,0.3591,1.0136
186_3,2025-07-19 01:06:37.833274,186,100.3,-0.0009,0.3571,1.0078
192_1,2025-07-19 01:06:38.234003,192,-161.8,-0.0014,0.3613,1.0083
192_2,2025-07-19 01:06:38.334003,192,-424.0,-0.0053,0.3588,1.0073
192_3,2025-07-19 01:06:38.434003,192,-30.8,-0.007,0.3596,1.0141
195_1,2025-07-19 01:06:38.532272,195,-30.8,-0.0061,0.362,1.01
195_2,2025-07-19 01:06:38.632272,195,-161.8,-0.0063,0.3591,1.017
195_3,2025-07-19 01:06:38.732272,195,-292.9,-0.0039,0.3654,1.0129
198_1,2025-07-19 01:06:38.863151,198,-555.1,-0.0051,0.3647,1.0139
198_2,2025-07-19 01:06:38.963151,198,-292.9,-0.0058,0.3596,1.0122
198_3,2025-07-19 01:06:39.063151,198,-30.8,-0.0034,0.3583,1.02
201_1,2025-07-19 01:06:39.131495,201,-30.8,-0.0061,0.3637,1.0095
201_2,2025-07-19 01:06:39.231495,201,231.4,-0.0056,0.3593,1.0163
201_3,2025-07-19 01:06:39.331495,201,231.4,-0.0085,0.361,1.0158
204_1,2025-07-19 01:06:39.437994,204,100.3,-0.0048,0.3618,1.0148
204_2,2025-07-19 01:06:39.537994,204,-30.8,-0.0063,0.3588,1.0068
204_3,2025-07-19 01:06:39.637994,204,-292.9,-0.0065,0.363,1.0107
207_1,2025-07-19 01:06:39.733606,207,-161.8,-0.0056,0.3625,1.0136
207_2,2025-07-19 01:06:39.833606,207,-30.8,-0.0039,0.3591,1.0109
207_3,2025-07-19 01:06:39.933606,207,-292.9,-0.0048,0.3625,1.0148
210_1,2025-07-19 01:06:40.033140,210,-686.1,-0.0053,0.3618,1.0148
210_2,2025-07-19 01:06:40.133140,210,-686.1,-0.0041,0.3583,1.0151
210_3,2025-07-19 01:06:40.233140,210,-817.2,-0.0053,0.3627,1.0097
216_1,2025-07-19 01:06:40.633293,216,-30.8,-0.0073,0.3581,1.0092
216_2,2025-07-19 01:06:40.733293,216,-292.9,-0.0058,0.3605,1.0026
216_3,2025-07-19 01:06:40.833293,216,-424.0,-0.0048,0.3615,1.0134
219_1,2025-07-19 01:06:40.937541,219,-292.9,-0.0031,0.3613,1.01
219_2,2025-07-19 01:06:41.037541,219,-161.8,-0.0026,0.3608,1.0173
219_3,2025-07-19 01:06:41.137541,219,-292.9,-0.0039,0.3586,1.0151
222_1,2025-07-19 01:06:41.232875,222,-161.8,-0.0061,0.3566,1.0207
222_2,2025-07-19 01:06:41.332875,222,-555.1,-0.0039,0.3625,1.02
222_3,2025-07-19 01:06:41.432875,222,-555.1,-0.0058,0.362,1.0197
225_1,2025-07-19 01:06:41.536383,225,-292.9,-0.0048,0.3623,1.0126
225_2,2025-07-19 01:06:41.636383,225,-424.0,-0.0036,0.3618,1.0112
225_3,2025-07-19 01:06:41.736383,225,-30.8,-0.008,0.3605,1.0173
231_1,2025-07-19 01:06:42.130873,231,-30.8,-0.0068,0.3627,1.0158
231_2,2025-07-19 01:06:42.230873,231,-555.1,-0.0048,0.3574,1.0197
231_3,2025-07-19 01:06:42.330873,231,-424.0,-0.0092,0.3608,1.0129
234_1,2025-07-19 01:06:42.437785,234,-161.8,-0.0048,0.3576,1.0136
234_2,2025-07-19 01:06:42.537785,234,-161.8,-0.009,0.3642,1.0161
234_3,2025-07-19 01:06:42.637785,234,-292.9,-0.0002,0.3625,1.0173
237_1,2025-07-19 01:06:43.032934,237,-292.9,-0.0036,0.3623,1.0097
237_2,2025-07-19 01:06:43.132934,237,-161.8,-0.0024,0.3593,1.0087
237_3,2025-07-19 01:06:43.232934,237,-424.0,-0.0012,0.3569,1.0144
240_1,2025-07-19 01:06:43.033323,240,-161.8,-0.0095,0.3608,1.0144
240_2,2025-07-19 01:06:43.133323,240,-161.8,-0.0056,0.3642,1.0187
240_3,2025-07-19 01:06:43.233323,240,-161.8,-0.0048,0.3583,1.0104
243_1,2025-07-19 01:06:43.336545,243,-292.9,-0.0058,0.3647,1.0148
243_2,2025-07-19 01:06:43.436545,243,-292.9,-0.0021,0.361,1.0146
243_3,2025-07-19 01:06:43.536545,243,-292.9,-0.0078,0.3615,1.0087
246_1,2025-07-19 01:06:43.632546,246,-30.8,-0.0002,0.3596,1.0156
246_2,2025-07-19 01:06:43.732546,246,100.3,-0.0017,0.3603,1.0114
246_3,2025-07-19 01:06:43.832546,246,100.3,-0.0061,0.3588,1.0126
249_1,2025-07-19 01:06:43.995327,249,-30.8,-0.0048,0.3603,1.0126
249_2,2025-07-19 01:06:44.095327,249,-292.9,-0.0034,0.3586,1.0073
249_3,2025-07-19 01:06:44.195327,249,-424.0,-0.0085,0.3591,1.0075
252_1,2025-07-19 01:06:44.237840,252,-161.8,-0.0073,0.3596,1.0078
252_2,2025-07-19 01:06:44.337840,252,-30.8,-0.0046,0.3613,1.0129
252_3,2025-07-19 01:06:44.437840,252,-161.8,-0.0073,0.3579,1.0114
255_1,2025-07-19 01:06:44.535541,255,-30.8,-0.0039,0.3662,1.0139
255_2,2025-07-19 01:06:44.635541,255,-161.8,-0.0029,0.362,1.0075
255_3,2025-07-19 01:06:44.735541,255,-161.8,-0.0063,0.3601,1.0175
2_1,2025-07-19 01:06:44.834150,2,100.3,-0.0048,0.3623,1.0126
2_2,2025-07-19 01:06:44.934150,2,100.3,-0.0012,0.3608,1.0141
2_3,2025-07-19 01:06:45.034150,2,-30.8,-0.0065,0.3598,1.0112
5_1,2025-07-19 01:06:45.135204,5,-30.8,-0.0021,0.3608,1.0083
5_2,2025-07-19 01:06:45.235204,5,100.3,-0.0063,0.361,1.0166
5_3,2025-07-19 01:06:45.335204,5,231.4,-0.0063,0.361,1.0087
8_1,2025-07-19 01:06:45.430627,8,-30.8,-0.0043,0.363,1.0161
8_2,2025-07-19 01:06:45.530627,8,-292.9,-0.0036,0.3574,1.0129
8_3,2025-07-19 01:06:45.630627,8,100.3,-0.0034,0.3623,1.0161
14_1,2025-07-19 01:06:46.035736,14,-161.8,-0.0021,0.3642,1.0141
14_2,2025-07-19 01:06:46.135736,14,-30.8,-0.0019,0.3601,1.0146
14_3,2025-07-19 01:06:46.235736,14,231.4,-0.0048,0.3603,1.017
20_1,2025-07-19 01:06:46.630271,20,-292.9,-0.0063,0.3608,1.0144
20_2,2025-07-19 01:06:46.730271,20,-424.0,-0.0068,0.3586,1.0107
20_3,2025-07-19 01:06:46.830271,20,-30.8,-0.0036,0.3605,1.0144
23_1,2025-07-19 01:06:46.936477,23,-30.8,-0.0056,0.3618,1.0141
23_2,2025-07-19 01:06:47.036477,23,-424.0,-0.0014,0.3608,1.0109
23_3,2025-07-19 01:06:47.136477,23,-424.0,-0.0048,0.3657,1.0104
29_1,2025-07-19 01:06:47.536304,29,-161.8,-0.0043,0.3601,1.0075
29_2,2025-07-19 01:06:47.636304,29,-30.8,-0.0021,0.3647,1.0051
29_3,2025-07-19 01:06:47.736304,29,-30.8,-0.0051,0.3601,1.0129
35_1,2025-07-19 01:06:48.428486,35,-161.8,-0.0002,0.3603,1.0136
35_2,2025-07-19 01:06:48.528486,35,-30.8,-0.0024,0.3598,1.0166
35_3,2025-07-19 01:06:48.628486,35,-292.9,-0.0004,0.363,1.0051
38_1,2025-07-19 01:06:48.428768,38,-161.8,-0.0056,0.3596,1.017
38_2,2025-07-19 01:06:48.528768,38,362.4,-0.0029,0.3583,1.0107
38_3,2025-07-19 01:06:48.628768,38,-292.9,-0.0056,0.3608,1.0109
41_1,2025-07-19 01:06:48.733235,41,-424.0,-0.0048,0.3625,1.0161
41_2,2025-07-19 01:06:48.833235,41,-161.8,-0.008,0.363,1.0112
41_3,2025-07-19 01:06:48.933235,41,-161.8,0.0,0.363,1.0126
44_1,2025-07-19 01:06:49.031686,44,100.3,-0.0036,0.3627,1.0063
44_2,2025-07-19 01:06:49.131686,44,-161.8,-0.0061,0.3615,1.0126
44_3,2025-07-19 01:06:49.231686,44,-555.1,-0.0009,0.3608,1.0092
47_1,2025-07-19 01:06:49.633633,47,-555.1,-0.0068,0.3593,1.0148
47_2,2025-07-19 01:06:49.733633,47,-555.1,-0.0039,0.3559,1.0161
47_3,2025-07-19 01:06:49.833633,47,-424.0,-0.0056,0.3596,1.0144
50_1,2025-07-19 01:06:49.634301,50,-292.9,-0.0046,0.362,1.0151
50_2,2025-07-19 01:06:49.734301,50,-30.8,-0.0041,0.3642,1.0173
50_3,2025-07-19 01:06:49.834301,50,100.3,-0.0021,0.3642,1.007
53_1,2025-07-19 01:06:49.932833,53,-161.8,-0.0075,0.3603,1.0131
53_2,2025-07-19 01:06:50.032833,53,-424.0,-0.0078,0.3642,1.0168
53_3,2025-07-19 01:06:50.132833,53,-555.1,-0.0065,0.3581,1.0056
56_1,2025-07-19 01:06:50.236562,56,-555.1,-0.007,0.3601,1.0114
56_2,2025-07-19 01:06:50.336562,56,-424.0,-0.0048,0.3649,1.0065
56_3,2025-07-19 01:06:50.436562,56,-161.8,-0.0024,0.3625,1.0151
59_1,2025-07-19 01:06:50.532969,59,-161.8,-0.0056,0.3598,1.018
59_2,2025-07-19 01:06:50.632969,59,-292.9,-0.0048,0.3591,1.019
59_3,2025-07-19 01:06:50.732969,59,-686.1,-0.0039,0.3581,1.0124
68_1,2025-07-19 01:06:51.432672,68,-424.0,-0.0041,0.3596,1.0136
68_2,2025-07-19 01:06:51.532672,68,-555.1,-0.0063,0.3591,1.0187
68_3,2025-07-19 01:06:51.632672,68,-292.9,-0.0021,0.3593,1.0122
71_1,2025-07-19 01:06:51.731379,71,100.3,-0.0051,0.3593,1.0122
71_2,2025-07-19 01:06:51.831379,71,-30.8,-0.009,0.3615,1.0192
71_3,2025-07-19 01:06:51.931379,71,-424.0,-0.0029,0.3571,1.0151
74_1,2025-07-19 01:06:52.035425,74,-686.1,-0.0036,0.3632,1.0122
74_2,2025-07-19 01:06:52.135425,74,-292.9,-0.0031,0.3591,1.0124
74_3,2025-07-19 01:06:52.235425,74,-161.8,-0.0068,0.3632,1.0124
77_1,2025-07-19 01:06:52.333343,77,-424.0,-0.0056,0.3574,1.018
77_2,2025-07-19 01:06:52.433343,77,-424.0,-0.0068,0.3574,1.0114
77_3,2025-07-19 01:06:52.533343,77,-292.9,-0.0012,0.3576,1.0078
80_1,2025-07-19 01:06:52.635872,80,231.4,-0.0043,0.3608,1.0109
80_2,2025-07-19 01:06:52.735872,80,231.4,-0.0024,0.3618,1.0122
80_3,2025-07-19 01:06:52.835872,80,-292.9,-0.0043,0.3586,1.0061
83_1,2025-07-19 01:06:52.968290,83,-292.9,-0.0048,0.3586,1.0134
83_2,2025-07-19 01:06:53.068290,83,-424.0,-0.0056,0.363,1.0078
83_3,2025-07-19 01:06:53.168290,83,-424.0,-0.0036,0.3608,1.0117
89_1,2025-07-19 01:06:53.533176,89,-424.0,-0.0034,0.3583,1.008
89_2,2025-07-19 01:06:53.633176,89,100.3,-0.0031,0.3593,1.0163
89_3,2025-07-19 01:06:53.733176,89,231.4,-0.0041,0.3593,1.0112
92_1,2025-07-19 01:06:53.829764,92,100.3,-0.0083,0.363,1.0146
92_2,2025-07-19 01:06:53.929764,92,-292.9,-0.0056,0.3596,1.0175
92_3,2025-07-19 01:06:54.029764,92,-424.0,-0.0056,0.3601,1.0166
95_1,2025-07-19 01:06:54.102691,95,-161.8,-0.0043,0.3627,1.0156
95_2,2025-07-19 01:06:54.202691,95,-30.8,-0.008,0.3608,1.0104
95_3,2025-07-19 01:06:54.302691,95,-161.8,-0.0046,0.3647,1.0126
98_1,2025-07-19 01:06:54.729888,98,-292.9,-0.0039,0.3645,1.0136
98_2,2025-07-19 01:06:54.829888,98,-292.9,-0.0034,0.3645,1.0134
98_3,2025-07-19 01:06:54.929888,98,-292.9,-0.0039,0.3603,1.0114
101_1,2025-07-19 01:06:54.730380,101,-424.0,-0.0043,0.3652,1.0104
101_2,2025-07-19 01:06:54.830380,101,-161.8,-0.0068,0.3618,1.0109
101_3,2025-07-19 01:06:54.930380,101,-161.8,-0.007,0.3605,1.0119
104_1,2025-07-19 01:06:55.038826,104,-161.8,-0.0021,0.3613,1.0126
104_2,2025-07-19 01:06:55.138826,104,-161.8,-0.0048,0.363,1.0163
104_3,2025-07-19 01:06:55.238826,104,-161.8,-0.0078,0.3593,1.0117
107_1,2025-07-19 01:06:55.335641,107,-161.8,-0.0048,0.3596,1.0153
107_2,2025-07-19 01:06:55.435641,107,-292.9,-0.0053,0.3586,1.0092
107_3,2025-07-19 01:06:55.535641,107,-555.1,-0.0039,0.3593,1.0097
110_1,2025-07-19 01:06:55.634257,110,-424.0,-0.0058,0.3586,1.0126
110_2,2025-07-19 01:06:55.734257,110,-424.0,-0.0056,0.3603,1.0112
110_3,2025-07-19 01:06:55.834257,110,-424.0,-0.0061,0.3618,1.0117
113_1,2025-07-19 01:06:56.235850,113,-424.0,-0.0026,0.3632,1.0158
113_2,2025-07-19 01:06:56.335850,113,-424.0,-0.0039,0.3635,1.0073
113_3,2025-07-19 01:06:56.435850,113,-30.8,-0.0068,0.3627,1.0144
116_1,2025-07-19 01:06:56.236519,116,-161.8,-0.0065,0.3598,1.0112
116_2,2025-07-19 01:06:56.336519,116,-555.1,-0.0041,0.3608,1.0117
116_3,2025-07-19 01:06:56.436519,116,-161.8,-0.0046,0.3623,1.018
119_1,2025-07-19 01:06:56.531670,119,-30.8,-0.0058,0.3583,1.009
119_2,2025-07-19 01:06:56.631670,119,-161.8,-0.0046,0.3603,1.0078
119_3,2025-07-19 01:06:56.731670,119,-30.8,-0.0046,0.3601,1.0119
122_1,2025-07-19 01:06:56.834901,122,-30.8,-0.0026,0.3586,1.0168
122_2,2025-07-19 01:06:56.934901,122,100.3,-0.0065,0.3649,1.0075
122_3,2025-07-19 01:06:57.034901,122,-161.8,-0.0065,0.3608,1.0136
125_1,2025-07-19 01:06:57.131742,125,-292.9,-0.0029,0.3664,1.0114
125_2,2025-07-19 01:06:57.231742,125,-292.9,-0.0029,0.3615,1.018
125_3,2025-07-19 01:06:57.331742,125,-424.0,-0.008,0.3613,1.0092
128_1,2025-07-19 01:06:57.434606,128,-161.8,-0.0002,0.3569,1.0126
128_2,2025-07-19 01:06:57.534606,128,-292.9,-0.0019,0.3618,1.0051
128_3,2025-07-19 01:06:57.634606,128,-161.8,-0.0053,0.3613,1.0107
131_1,2025-07-19 01:06:57.739910,131,-30.8,-0.0036,0.3654,1.0095
131_2,2025-07-19 01:06:57.839910,131,-292.9,-0.0058,0.3569,1.0104
131_3,2025-07-19 01:06:57.939910,131,-424.0,-0.0058,0.361,1.0058
137_1,2025-07-19 01:06:58.331739,137,-161.8,-0.0026,0.3613,1.0141
137_2,2025-07-19 01:06:58.431739,137,-30.8,-0.0048,0.3642,1.0153
137_3,2025-07-19 01:06:58.531739,137,-30.8,-0.0029,0.3615,1.0129
140_1,2025-07-19 01:06:58.630584,140,100.3,-0.0041,0.361,1.017
140_2,2025-07-19 01:06:58.730584,140,-161.8,0.0024,0.3581,1.009
140_3,2025-07-19 01:06:58.830584,140,-555.1,-0.0024,0.3618,1.0166
146_1,2025-07-19 01:06:59.232503,146,-424.0,-0.0065,0.3603,1.019
146_2,2025-07-19 01:06:59.332503,146,-30.8,-0.0075,0.3613,1.0095
146_3,2025-07-19 01:06:59.432503,146,231.4,-0.0024,0.3632,1.0085
149_1,2025-07-19 01:06:59.533578,149,-30.8,-0.0053,0.3566,1.0117
149_2,2025-07-19 01:06:59.633578,149,-161.8,-0.0039,0.3635,1.0144
149_3,2025-07-19 01:06:59.733578,149,-161.8,-0.0031,0.3591,1.0122
158_1,2025-07-19 01:07:00.433313,158,-686.1,-0.0053,0.3615,1.0192
158_2,2025-07-19 01:07:00.533313,158,-686.1,-0.0021,0.3627,1.0083
158_3,2025-07-19 01:07:00.633313,158,-555.1,-0.0031,0.3623,1.009
161_1,2025-07-19 01:07:00.730065,161,-424.0,-0.0031,0.3618,1.0139
161_2,2025-07-19 01:07:00.830065,161,-424.0,-0.0063,0.3601,1.0104
161_3,2025-07-19 01:07:00.930065,161,-424.0,-0.0034,0.3615,1.0214
164_1,2025-07-19 01:07:01.036252,164,-555.1,-0.0063,0.3588,1.0151
164_2,2025-07-19 01:07:01.136252,164,-292.9,-0.0051,0.3605,1.0085
164_3,2025-07-19 01:07:01.236252,164,-161.8,-0.0063,0.3569,1.0178
167_1,2025-07-19 01:07:01.333209,167,100.3,-0.0061,0.362,1.0141
167_2,2025-07-19 01:07:01.433209,167,-161.8,-0.0039,0.3615,1.0109
167_3,2025-07-19 01:07:01.533209,167,-424.0,-0.0097,0.3625,1.0085
170_1,2025-07-19 01:07:01.637081,170,-161.8,-0.0046,0.3625,1.0075
170_2,2025-07-19 01:07:01.737081,170,-30.8,-0.0095,0.3601,1.0048
170_3,2025-07-19 01:07:01.837081,170,-161.8,-0.0026,0.3637,1.0148
173_1,2025-07-19 01:07:01.936353,173,-292.9,-0.0012,0.3615,1.0092
173_2,2025-07-19 01:07:02.036353,173,-292.9,-0.007,0.3623,1.0156
173_3,2025-07-19 01:07:02.136353,173,-161.8,-0.0056,0.3625,1.0144
176_1,2025-07-19 01:07:02.234449,176,-161.8,0.0002,0.3583,1.0104
176_2,2025-07-19 01:07:02.334449,176,-161.8,-0.0036,0.3603,1.0161
176_3,2025-07-19 01:07:02.434449,176,-30.8,-0.0065,0.3623,1.0175
179_1,2025-07-19 01:07:02.535338,179,-161.8,-0.0026,0.3635,1.0122
179_2,2025-07-19 01:07:02.635338,179,-424.0,-0.0021,0.3601,1.0146
179_3,2025-07-19 01:07:02.735338,179,-292.9,-0.0053,0.3623,1.0141
182_1,2025-07-19 01:07:02.830784,182,-161.8,-0.0087,0.3627,1.0107
182_2,2025-07-19 01:07:02.930784,182,-292.9,-0.0053,0.3601,1.0146
182_3,2025-07-19 01:07:03.030784,182,-292.9,-0.007,0.363,1.0141
185_1,2025-07-19 01:07:03.102102,185,-424.0,-0.0007,0.3579,1.0097
185_2,2025-07-19 01:07:03.202102,185,-424.0,-0.0063,0.3603,1.0126
185_3,2025-07-19 01:07:03.302102,185,-424.0,-0.0041,0.3618,1.0163
188_1,2025-07-19 01:07:03.433425,188,-555.1,-0.0053,0.3647,1.0122
188_2,2025-07-19 01:07:03.533425,188,-686.1,-0.0039,0.3593,1.0131
188_3,2025-07-19 01:07:03.633425,188,-555.1,-0.0065,0.3635,1.0158
191_1,2025-07-19 01:07:03.736443,191,-30.8,-0.0014,0.3596,1.0129
191_2,2025-07-19 01:07:03.836443,191,-30.8,-0.0026,0.3615,1.0117
191_3,2025-07-19 01:07:03.936443,191,-30.8,0.0004,0.3593,1.0166
194_1,2025-07-19 01:07:04.037797,194,231.4,-0.0041,0.3605,1.0117
194_2,2025-07-19 01:07:04.137797,194,-30.8,-0.0075,0.3613,1.0097
194_3,2025-07-19 01:07:04.237797,194,-555.1,-0.0041,0.362,1.0185
198_1,2025-07-19 01:07:04.403567,198,231.4,-0.0031,0.362,1.017
198_2,2025-07-19 01:07:04.503567,198,-161.8,-0.0039,0.3601,1.0148
198_3,2025-07-19 01:07:04.603567,198,-424.0,-0.0034,0.3603,1.0124
201_1,2025-07-19 01:07:04.737403,201,-30.8,-0.0034,0.3618,1.0258
201_2,2025-07-19 01:07:04.837403,201,362.4,-0.0046,0.3615,1.0158
201_3,2025-07-19 01:07:04.937403,201,-161.8,-0.0004,0.3605,1.0195
204_1,2025-07-19 01:07:05.004680,204,-424.0,-0.0063,0.364,1.008
204_2,2025-07-19 01:07:05.104680,204,-161.8,-0.009,0.3618,1.0107
204_3,2025-07-19 01:07:05.204680,204,100.3,-0.0061,0.3586,1.0112
207_1,2025-07-19 01:07:05.304392,207,-424.0,-0.0046,0.3649,1.0156
207_2,2025-07-19 01:07:05.404392,207,-161.8,-0.0043,0.3652,1.0144
207_3,2025-07-19 01:07:05.504392,207,100.3,-0.0026,0.3613,1.0126
211_1,2025-07-19 01:07:05.735004,211,-292.9,-0.0014,0.3642,1.0187
211_2,2025-07-19 01:07:05.835004,211,-161.8,-0.0083,0.3562,1.009
211_3,2025-07-19 01:07:05.935004,211,-555.1,-0.0036,0.3571,1.0153
214_1,2025-07-19 01:07:06.003181,214,-817.2,-0.0019,0.363,1.0104
214_2,2025-07-19 01:07:06.103181,214,-292.9,-0.0019,0.3562,1.017
214_3,2025-07-19 01:07:06.203181,214,-30.8,-0.0012,0.3625,1.0207
217_1,2025-07-19 01:07:06.332314,217,-292.9,-0.0073,0.361,1.0173
217_2,2025-07-19 01:07:06.432314,217,100.3,-0.0002,0.3627,1.0175
217_3,2025-07-19 01:07:06.532314,217,-161.8,-0.007,0.3603,1.0158
220_1,2025-07-19 01:07:06.605056,220,-292.9,-0.0043,0.3603,1.018
220_2,2025-07-19 01:07:06.705056,220,-161.8,-0.0073,0.3618,1.0136
220_3,2025-07-19 01:07:06.805056,220,-555.1,-0.0009,0.3586,1.0126
223_1,2025-07-19 01:07:06.902968,223,-555.1,-0.0004,0.361,1.0056
223_2,2025-07-19 01:07:07.002968,223,-424.0,-0.0058,0.3586,1.0112
223_3,2025-07-19 01:07:07.102968,223,-555.1,-0.0063,0.3598,1.0156
226_1,2025-07-19 01:07:07.264225,226,-555.1,-0.0053,0.3591,1.0153
226_2,2025-07-19 01:07:07.364225,226,-424.0,-0.0007,0.3632,1.0205
226_3,2025-07-19 01:07:07.464225,226,100.3,-0.0034,0.3608,1.0151
229_1,2025-07-19 01:07:07.504569,229,231.4,-0.0019,0.3601,1.0173
229_2,2025-07-19 01:07:07.604569,229,231.4,-0.0073,0.3615,1.0095
229_3,2025-07-19 01:07:07.704569,229,-161.8,-0.0051,0.3623,1.0075
232_1,2025-07-19 01:07:07.803048,232,-686.1,-0.0041,0.3603,1.0092
232_2,2025-07-19 01:07:07.903048,232,-555.1,-0.0019,0.3652,1.0083
232_3,2025-07-19 01:07:08.003048,232,-555.1,-0.0024,0.3583,1.0185
235_1,2025-07-19 01:07:08.101873,235,-686.1,-0.0031,0.3652,1.0175
235_2,2025-07-19 01:07:08.201873,235,-555.1,-0.0019,0.3613,1.0146
235_3,2025-07-19 01:07:08.301873,235,-424.0,-0.0073,0.3637,1.0161
238_1,2025-07-19 01:07:08.405071,238,-424.0,-0.0031,0.362,1.0107
238_2,2025-07-19 01:07:08.505071,238,-555.1,-0.0075,0.3615,1.0168
238_3,2025-07-19 01:07:08.605071,238,-686.1,-0.0061,0.3603,1.0148
241_1,2025-07-19 01:07:08.704277,241,-686.1,-0.0026,0.3613,1.0139
241_2,2025-07-19 01:07:08.804277,241,-817.2,-0.0075,0.3596,1.0126
241_3,2025-07-19 01:07:08.904277,241,-424.0,-0.0036,0.3601,1.0141
244_1,2025-07-19 01:07:09.003071,244,100.3,-0.0058,0.3615,1.0102
244_2,2025-07-19 01:07:09.103071,244,-161.8,-0.0056,0.3613,1.0122
244_3,2025-07-19 01:07:09.203071,244,-424.0,-0.0061,0.3635,1.0163
247_1,2025-07-19 01:07:09.305602,247,-817.2,-0.0056,0.3649,1.0156
247_2,2025-07-19 01:07:09.405602,247,-555.1,-0.0056,0.362,1.0109
247_3,2025-07-19 01:07:09.505602,247,231.4,-0.0053,0.3642,1.0185
250_1,2025-07-19 01:07:09.630090,250,231.4,-0.0024,0.3618,1.0122
250_2,2025-07-19 01:07:09.730090,250,100.3,-0.0068,0.3613,1.0141
250_3,2025-07-19 01:07:09.830090,250,-161.8,-0.0065,0.3613,1.0092
253_1,2025-07-19 01:07:09.902547,253,-161.8,-0.0056,0.3637,1.008
253_2,2025-07-19 01:07:10.002547,253,-424.0,-0.0036,0.3608,1.0136
253_3,2025-07-19 01:07:10.102547,253,-948.3,-0.0041,0.363,1.0195
0_1,2025-07-19 01:07:10.205096,0,-817.2,-0.0043,0.3583,1.0156
0_2,2025-07-19 01:07:10.305096,0,-292.9,-0.0053,0.3569,1.0043
0_3,2025-07-19 01:07:10.405096,0,-161.8,-0.0034,0.3659,1.0119
3_1,2025-07-19 01:07:10.504420,3,-424.0,-0.0043,0.3623,1.0141
3_2,2025-07-19 01:07:10.604420,3,-292.9,-0.0075,0.3649,1.009
3_3,2025-07-19 01:07:10.704420,3,-161.8,-0.0061,0.3591,1.0136
6_1,2025-07-19 01:07:10.860352,6,-424.0,-0.0083,0.3603,1.0114
6_2,2025-07-19 01:07:10.960352,6,-555.1,-0.0036,0.3613,1.0175
6_3,2025-07-19 01:07:11.060352,6,-555.1,-0.0048,0.3613,1.0166
9_1,2025-07-19 01:07:11.104469,9,-292.9,-0.0026,0.3605,1.0112
9_2,2025-07-19 01:07:11.204469,9,-161.8,-0.0017,0.3625,1.0075
9_3,2025-07-19 01:07:11.304469,9,-292.9,-0.0063,0.3586,1.0109
12_1,2025-07-19 01:07:11.403155,12,-555.1,-0.0075,0.3637,1.0075
12_2,2025-07-19 01:07:11.503155,12,-424.0,-0.0026,0.3593,1.0144
12_3,2025-07-19 01:07:11.603155,12,-424.0,-0.0046,0.364,1.0153
15_1,2025-07-19 01:07:11.701944,15,-424.0,-0.0056,0.3559,1.0092
15_2,2025-07-19 01:07:11.801944,15,-555.1,-0.0046,0.3579,1.0104
15_3,2025-07-19 01:07:11.901944,15,-424.0,-0.0041,0.3571,1.0163
18_1,2025-07-19 01:07:12.004510,18,-161.8,-0.0058,0.3583,1.0102
18_2,2025-07-19 01:07:12.104510,18,-424.0,-0.0034,0.3605,1.0185
18_3,2025-07-19 01:07:12.204510,18,-424.0,-0.0039,0.3596,1.0131
21_1,2025-07-19 01:07:12.303617,21,-555.1,-0.0029,0.3598,1.0129
21_2,2025-07-19 01:07:12.403617,21,-555.1,-0.0039,0.3642,1.0217
21_3,2025-07-19 01:07:12.503617,21,-292.9,-0.0036,0.3598,1.0141
24_1,2025-07-19 01:07:12.601909,24,-161.8,-0.0041,0.3601,1.0151
24_2,2025-07-19 01:07:12.701909,24,-161.8,-0.0036,0.3571,1.0244
24_3,2025-07-19 01:07:12.801909,24,-161.8,-0.0056,0.3603,1.0104
27_1,2025-07-19 01:07:12.904957,27,-30.8,-0.0029,0.3618,1.0092
27_2,2025-07-19 01:07:13.004957,27,100.3,-0.0004,0.361,1.0117
27_3,2025-07-19 01:07:13.104957,27,-161.8,-0.0051,0.3657,1.017
30_1,2025-07-19 01:07:13.202590,30,100.3,-0.0034,0.3635,1.0134
30_2,2025-07-19 01:07:13.302590,30,100.3,-0.0053,0.3613,1.0141
30_3,2025-07-19 01:07:13.402590,30,-292.9,-0.0063,0.3618,1.0102
33_1,2025-07-19 01:07:13.504314,33,-30.8,-0.0043,0.3605,1.0151
33_2,2025-07-19 01:07:13.604314,33,100.3,-0.0068,0.3591,1.0139
33_3,2025-07-19 01:07:13.704314,33,-292.9,-0.0061,0.3618,1.009
36_1,2025-07-19 01:07:13.829581,36,-161.8,-0.0043,0.3615,1.0114
36_2,2025-07-19 01:07:13.929581,36,100.3,0.0021,0.3591,1.018
36_3,2025-07-19 01:07:14.029581,36,-292.9,-0.0085,0.3593,1.0124
39_1,2025-07-19 01:07:14.102215,39,-292.9,-0.0078,0.3566,1.0136
39_2,2025-07-19 01:07:14.202215,39,-30.8,-0.0048,0.3588,1.0175
39_3,2025-07-19 01:07:14.302215,39,100.3,-0.0017,0.3618,1.0122
42_1,2025-07-19 01:07:14.404471,42,-161.8,-0.0063,0.361,1.0117
42_2,2025-07-19 01:07:14.504471,42,-292.9,-0.0053,0.3593,1.0104
42_3,2025-07-19 01:07:14.604471,42,-292.9,-0.0073,0.3615,1.0085
45_1,2025-07-19 01:07:14.703446,45,-424.0,-0.0061,0.363,1.0102
45_2,2025-07-19 01:07:14.803446,45,-686.1,-0.0041,0.3603,1.0153
45_3,2025-07-19 01:07:14.903446,45,-686.1,-0.0075,0.3625,1.0124
48_1,2025-07-19 01:07:15.002171,48,-424.0,-0.0048,0.3615,1.0126
48_2,2025-07-19 01:07:15.102171,48,-292.9,-0.0065,0.3664,1.0163
48_3,2025-07-19 01:07:15.202171,48,-424.0,-0.0061,0.3645,1.0065
51_1,2025-07-19 01:07:15.306006,51,-555.1,-0.0046,0.3613,1.0139
51_2,2025-07-19 01:07:15.406006,51,-292.9,-0.0053,0.3581,1.0112
51_3,2025-07-19 01:07:15.506006,51,-161.8,-0.0039,0.3615,1.009
54_1,2025-07-19 01:07:15.603472,54,-292.9,-0.0039,0.3623,1.0126
54_2,2025-07-19 01:07:15.703472,54,-292.9,-0.0061,0.3623,1.02
54_3,2025-07-19 01:07:15.803472,54,-161.8,-0.0034,0.3613,1.0109
57_1,2025-07-19 01:07:15.902647,57,100.3,-0.0024,0.3613,1.0107
57_2,2025-07-19 01:07:16.002647,57,-292.9,-0.0058,0.3603,1.0112
57_3,2025-07-19 01:07:16.102647,57,-686.1,-0.0017,0.364,1.0139
60_1,2025-07-19 01:07:16.204485,60,-292.9,-0.0097,0.361,1.0139
60_2,2025-07-19 01:07:16.304485,60,-161.8,-0.0075,0.362,1.0124
60_3,2025-07-19 01:07:16.404485,60,-555.1,-0.0034,0.363,1.0168
63_1,2025-07-19 01:07:16.503091,63,-30.8,-0.0075,0.364,1.0058
63_2,2025-07-19 01:07:16.603091,63,-30.8,-0.0068,0.363,1.0112
63_3,2025-07-19 01:07:16.703091,63,231.4,-0.0034,0.3642,1.0092
66_1,2025-07-19 01:07:16.803286,66,-292.9,0.0002,0.3625,1.0112
66_2,2025-07-19 01:07:16.903286,66,-424.0,-0.0073,0.3618,1.0117
66_3,2025-07-19 01:07:17.003286,66,-424.0,-0.0051,0.3581,1.0073
71_1,2025-07-19 01:07:17.303292,71,-817.2,-0.0102,0.3598,1.017
71_2,2025-07-19 01:07:17.403292,71,-292.9,-0.0034,0.3605,1.0175
71_3,2025-07-19 01:07:17.503292,71,362.4,-0.0048,0.362,1.0148
74_1,2025-07-19 01:07:17.605087,74,-30.8,-0.0041,0.3608,1.019
74_2,2025-07-19 01:07:17.705087,74,-555.1,-0.0024,0.3583,1.0109
74_3,2025-07-19 01:07:17.805087,74,-161.8,-0.0024,0.3618,1.0156
77_1,2025-07-19 01:07:17.935655,77,-292.9,-0.0048,0.3613,1.0083
77_2,2025-07-19 01:07:18.035655,77,-686.1,-0.0021,0.3596,1.0134
77_3,2025-07-19 01:07:18.135655,77,-686.1,-0.0053,0.3625,1.0124
80_1,2025-07-19 01:07:18.203323,80,-424.0,-0.0068,0.3608,1.01
80_2,2025-07-19 01:07:18.303323,80,-292.9,-0.0053,0.3637,1.0146
80_3,2025-07-19 01:07:18.403323,80,-555.1,-0.0046,0.3588,1.0075
83_1,2025-07-19 01:07:18.558838,83,-424.0,-0.0029,0.364,1.0109
83_2,2025-07-19 01:07:18.658838,83,-30.8,-0.0058,0.3605,1.0104
83_3,2025-07-19 01:07:18.758838,83,100.3,-0.0029,0.3642,1.0109
86_1,2025-07-19 01:07:18.838404,86,-424.0,-0.0051,0.3591,1.0087
86_2,2025-07-19 01:07:18.938404,86,-686.1,0.0014,0.3591,1.0063
86_3,2025-07-19 01:07:19.038404,86,-424.0,-0.0029,0.3603,1.0144
89_1,2025-07-19 01:07:19.164680,89,-292.9,-0.0039,0.3605,1.0158
89_2,2025-07-19 01:07:19.264680,89,-292.9,-0.0017,0.3615,1.0168
89_3,2025-07-19 01:07:19.364680,89,-424.0,-0.0007,0.3642,1.007
92_1,2025-07-19 01:07:19.405169,92,-424.0,-0.0007,0.3625,1.0109
92_2,2025-07-19 01:07:19.505169,92,-292.9,-0.0046,0.3591,1.0107
92_3,2025-07-19 01:07:19.605169,92,-292.9,-0.0051,0.3598,1.0166
95_1,2025-07-19 01:07:19.764279,95,100.3,-0.0041,0.3676,1.0122
95_2,2025-07-19 01:07:19.864279,95,-30.8,-0.0012,0.3605,1.0136
95_3,2025-07-19 01:07:19.964279,95,-555.1,-0.0017,0.3625,1.0083
98_1,2025-07-19 01:07:20.002970,98,-555.1,-0.0046,0.362,1.0124
98_2,2025-07-19 01:07:20.102970,98,-292.9,-0.0063,0.3615,1.0175
98_3,2025-07-19 01:07:20.202970,98,-292.9,-0.0031,0.3571,1.0078
101_1,2025-07-19 01:07:20.305753,101,-292.9,-0.0065,0.364,1.0041
101_2,2025-07-19 01:07:20.405753,101,-555.1,-0.0034,0.3632,1.0122
101_3,2025-07-19 01:07:20.505753,101,-424.0,-0.0021,0.363,1.0139
104_1,2025-07-19 01:07:20.634712,104,-424.0,-0.0063,0.361,1.0131
104_2,2025-07-19 01:07:20.734712,104,-555.1,-0.008,0.3598,1.0102
104_3,2025-07-19 01:07:20.834712,104,-292.9,-0.0048,0.3596,1.0117
109_1,2025-07-19 01:07:21.138463,109,-292.9,-0.0053,0.3596,1.0151
109_2,2025-07-19 01:07:21.238463,109,-424.0,-0.0036,0.361,1.0148
109_3,2025-07-19 01:07:21.338463,109,-555.1,-0.0019,0.3613,1.0078
112_1,2025-07-19 01:07:21.432490,112,-292.9,-0.0026,0.3576,1.0158
112_2,2025-07-19 01:07:21.532490,112,-292.9,-0.0063,0.363,1.01
112_3,2025-07-19 01:07:21.632490,112,-161.8,-0.0029,0.3608,1.0144
115_1,2025-07-19 01:07:21.730947,115,100.3,-0.0036,0.3557,1.0144
115_2,2025-07-19 01:07:21.830947,115,231.4,-0.0012,0.3552,1.0109
115_3,2025-07-19 01:07:21.930947,115,100.3,-0.0056,0.3591,1.0156
124_1,2025-07-19 01:07:22.628811,124,-161.8,-0.0068,0.362,1.0197
124_2,2025-07-19 01:07:22.728811,124,-292.9,-0.0041,0.3632,1.01
124_3,2025-07-19 01:07:22.828811,124,-161.8,-0.0061,0.3642,1.0195
128_1,2025-07-19 01:07:23.087725,128,-424.0,-0.0058,0.3605,1.0144
128_2,2025-07-19 01:07:23.187725,128,-30.8,-0.0026,0.3596,1.0158
128_3,2025-07-19 01:07:23.287725,128,100.3,-0.0056,0.3627,1.0153
133_1,2025-07-19 01:07:23.532161,133,-424.0,-0.0031,0.363,1.0126
133_2,2025-07-19 01:07:23.632161,133,-161.8,0.0014,0.3598,1.0148
133_3,2025-07-19 01:07:23.732161,133,-292.9,-0.0058,0.3593,1.0139
139_1,2025-07-19 01:07:24.136323,139,-30.8,-0.0034,0.3571,1.0158
139_2,2025-07-19 01:07:24.236323,139,100.3,-0.0063,0.362,1.0053
139_3,2025-07-19 01:07:24.336323,139,-292.9,-0.0078,0.3627,1.0166
142_1,2025-07-19 01:07:24.431860,142,-555.1,-0.0053,0.3598,1.0168
142_2,2025-07-19 01:07:24.531860,142,-292.9,-0.0075,0.3652,1.0136
142_3,2025-07-19 01:07:24.631860,142,-555.1,-0.0039,0.3618,1.0119
151_1,2025-07-19 01:07:25.334453,151,100.3,-0.0019,0.3593,1.0141
151_2,2025-07-19 01:07:25.434453,151,-161.8,-0.0036,0.3564,1.007
151_3,2025-07-19 01:07:25.534453,151,-292.9,-0.009,0.3562,1.0058
154_1,2025-07-19 01:07:25.633356,154,-424.0,-0.0053,0.3596,1.0104
154_2,2025-07-19 01:07:25.733356,154,-424.0,-0.0026,0.3637,1.01
154_3,2025-07-19 01:07:25.833356,154,-424.0,-0.0041,0.3603,1.0139
157_1,2025-07-19 01:07:25.936247,157,-424.0,-0.009,0.3593,1.0136
157_2,2025-07-19 01:07:26.036247,157,-30.8,-0.0068,0.3596,1.01
157_3,2025-07-19 01:07:26.136247,157,362.4,-0.0043,0.3586,1.0097
160_1,2025-07-19 01:07:26.229768,160,100.3,-0.0039,0.3625,1.017
160_2,2025-07-19 01:07:26.329768,160,-555.1,-0.0102,0.3657,1.0153
160_3,2025-07-19 01:07:26.429768,160,-424.0,-0.0048,0.3603,1.0117
163_1,2025-07-19 01:07:26.532120,163,-30.8,-0.0061,0.3632,1.0104
163_2,2025-07-19 01:07:26.632120,163,-161.8,-0.0053,0.3603,1.01
163_3,2025-07-19 01:07:26.732120,163,-30.8,-0.0056,0.3645,1.0124
166_1,2025-07-19 01:07:26.835751,166,-30.8,-0.0021,0.3615,1.0117
166_2,2025-07-19 01:07:26.935751,166,-161.8,-0.0056,0.3562,1.0205
166_3,2025-07-19 01:07:27.035751,166,-161.8,-0.0031,0.3608,1.0139
169_1,2025-07-19 01:07:27.130919,169,-424.0,-0.0061,0.3662,1.0166
169_2,2025-07-19 01:07:27.230919,169,-555.1,-0.0051,0.3615,1.0158
169_3,2025-07-19 01:07:27.330919,169,-555.1,-0.0021,0.3608,1.009
175_1,2025-07-19 01:07:27.732549,175,231.4,-0.0034,0.3627,1.0114
175_2,2025-07-19 01:07:27.832549,175,-30.8,0.0004,0.3635,1.009
175_3,2025-07-19 01:07:27.932549,175,-30.8,-0.0051,0.3613,1.0146
178_1,2025-07-19 01:07:28.039383,178,-161.8,-0.0021,0.3627,1.0107
178_2,2025-07-19 01:07:28.139383,178,-555.1,-0.0021,0.3625,1.0104
178_3,2025-07-19 01:07:28.239383,178,-292.9,0.0036,0.3581,1.0151
181_1,2025-07-19 01:07:28.331396,181,-30.8,-0.0063,0.3591,1.0214
181_2,2025-07-19 01:07:28.431396,181,-555.1,-0.0009,0.3603,1.0092
181_3,2025-07-19 01:07:28.531396,181,-424.0,0.0,0.363,1.0131
184_1,2025-07-19 01:07:28.637416,184,-30.8,-0.0073,0.3603,1.018
184_2,2025-07-19 01:07:28.737416,184,-424.0,0.0,0.3593,1.0109
184_3,2025-07-19 01:07:28.837416,184,-555.1,-0.0021,0.3605,1.0065
187_1,2025-07-19 01:07:28.958021,187,-292.9,-0.0048,0.3581,1.0205
187_2,2025-07-19 01:07:29.058021,187,-292.9,-0.0068,0.3559,1.0148
187_3,2025-07-19 01:07:29.158021,187,-424.0,-0.0026,0.3625,1.0144
190_1,2025-07-19 01:07:29.232311,190,-555.1,-0.0058,0.3618,1.0139
190_2,2025-07-19 01:07:29.332311,190,-555.1,-0.0026,0.3605,1.0139
190_3,2025-07-19 01:07:29.432311,190,-686.1,-0.0053,0.361,1.0114
193_1,2025-07-19 01:07:29.536063,193,-686.1,-0.0012,0.3598,1.0141
193_2,2025-07-19 01:07:29.636063,193,-292.9,-0.0063,0.3591,1.0129
193_3,2025-07-19 01:07:29.736063,193,-292.9,-0.0039,0.3591,1.0124
196_1,2025-07-19 01:07:29.830627,196,-817.2,-0.0014,0.3608,1.0102
196_2,2025-07-19 01:07:29.930627,196,-555.1,-0.0058,0.3632,1.0126
196_3,2025-07-19 01:07:30.030627,196,-161.8,-0.0036,0.3632,1.0119
202_1,2025-07-19 01:07:30.433013,202,-424.0,-0.0063,0.363,1.0192
202_2,2025-07-19 01:07:30.533013,202,-292.9,-0.0046,0.3605,1.018
202_3,2025-07-19 01:07:30.633013,202,-161.8,-0.0031,0.3596,1.0148
205_1,2025-07-19 01:07:30.738900,205,-30.8,-0.0065,0.3586,1.0043
205_2,2025-07-19 01:07:30.838900,205,-161.8,-0.0065,0.3596,1.0168
205_3,2025-07-19 01:07:30.938900,205,-555.1,-0.0031,0.3613,1.017
211_1,2025-07-19 01:07:31.364768,211,-30.8,-0.0061,0.363,1.0124
211_2,2025-07-19 01:07:31.464768,211,-424.0,-0.0034,0.3625,1.0136
211_3,2025-07-19 01:07:31.564768,211,-686.1,-0.0031,0.3654,1.0156
217_1,2025-07-19 01:07:31.929982,217,-161.8,-0.0039,0.3618,1.0061
217_2,2025-07-19 01:07:32.029982,217,-292.9,-0.0036,0.3598,1.0156
217_3,2025-07-19 01:07:32.129982,217,-424.0,-0.0024,0.3613,1.0114
223_1,2025-07-19 01:07:32.539843,223,-686.1,-0.0036,0.3574,1.0144
223_2,2025-07-19 01:07:32.639843,223,-424.0,-0.0061,0.3615,1.0139
223_3,2025-07-19 01:07:32.739843,223,-292.9,-0.0056,0.364,1.0126
228_1,2025-07-19 01:07:33.130561,228,-948.3,-0.0021,0.3642,1.0097
228_2,2025-07-19 01:07:33.230561,228,-686.1,-0.0036,0.3613,1.0114
228_3,2025-07-19 01:07:33.330561,228,-161.8,-0.0053,0.3637,1.0036
235_1,2025-07-19 01:07:33.730748,235,-292.9,-0.0061,0.3601,1.0041
235_2,2025-07-19 01:07:33.830748,235,-424.0,-0.0043,0.3601,1.0097
235_3,2025-07-19 01:07:33.930748,235,-555.1,0.0004,0.3579,1.0092
238_1,2025-07-19 01:07:34.031497,238,-686.1,-0.0031,0.3684,1.0129
238_2,2025-07-19 01:07:34.131497,238,-424.0,-0.0009,0.3618,1.0151
238_3,2025-07-19 01:07:34.231497,238,-292.9,-0.0056,0.3605,1.0092
241_1,2025-07-19 01:07:34.336990,241,-555.1,-0.0007,0.3566,1.0083
241_2,2025-07-19 01:07:34.436990,241,-555.1,-0.0029,0.3674,1.0134
241_3,2025-07-19 01:07:34.536990,241,-161.8,-0.0051,0.3598,1.0063
244_1,2025-07-19 01:07:34.629279,244,-292.9,0.0007,0.3608,1.0124
244_2,2025-07-19 01:07:34.729279,244,-555.1,-0.0065,0.362,1.0197
244_3,2025-07-19 01:07:34.829279,244,-555.1,-0.0043,0.3635,1.0056
247_1,2025-07-19 01:07:34.937989,247,-292.9,0.0004,0.363,1.0136
247_2,2025-07-19 01:07:35.037989,247,-292.9,-0.0048,0.3603,1.0129
247_3,2025-07-19 01:07:35.137989,247,-292.9,-0.0002,0.362,1.0112
250_1,2025-07-19 01:07:35.230015,250,-292.9,-0.0041,0.3647,1.0129
250_2,2025-07-19 01:07:35.330015,250,-686.1,-0.0024,0.3586,1.0056
250_3,2025-07-19 01:07:35.430015,250,-424.0,-0.0051,0.3574,1.0117
0_1,2025-07-19 01:07:35.831934,0,-424.0,-0.0026,0.362,1.0097
0_2,2025-07-19 01:07:35.931934,0,-161.8,-0.0051,0.3618,1.0141
0_3,2025-07-19 01:07:36.031934,0,-292.9,-0.0026,0.3684,1.019
3_1,2025-07-19 01:07:36.138314,3,-555.1,-0.0068,0.3627,1.0114
3_2,2025-07-19 01:07:36.238314,3,-424.0,-0.0031,0.3635,1.0158
3_3,2025-07-19 01:07:36.338314,3,-292.9,-0.0061,0.3627,1.0158
6_1,2025-07-19 01:07:36.469053,6,-161.8,-0.0031,0.3645,1.0124
6_2,2025-07-19 01:07:36.569053,6,100.3,-0.0043,0.3625,1.0168
6_3,2025-07-19 01:07:36.669053,6,-30.8,-0.0029,0.362,1.0151
9_1,2025-07-19 01:07:36.702370,9,-161.8,-0.0053,0.3625,1.0134
9_2,2025-07-19 01:07:36.802370,9,-30.8,-0.0024,0.3647,1.0122
9_3,2025-07-19 01:07:36.902370,9,-161.8,-0.0085,0.3618,1.0102
12_1,2025-07-19 01:07:37.037149,12,-292.9,-0.0065,0.361,1.01
12_2,2025-07-19 01:07:37.137149,12,-686.1,-0.0029,0.3613,1.0063
12_3,2025-07-19 01:07:37.237149,12,-686.1,-0.0024,0.3603,1.01
15_1,2025-07-19 01:07:37.353261,15,-292.9,-0.0031,0.3625,1.01
15_2,2025-07-19 01:07:37.453261,15,-424.0,-0.0031,0.3591,1.0202
15_3,2025-07-19 01:07:37.553261,15,-555.1,-0.0043,0.3632,1.0117
18_1,2025-07-19 01:07:37.631030,18,-555.1,-0.0046,0.3598,1.0024
18_2,2025-07-19 01:07:37.731030,18,-817.2,-0.0058,0.3579,1.0097
18_3,2025-07-19 01:07:37.831030,18,-817.2,-0.0024,0.3659,1.0136
27_1,2025-07-19 01:07:38.535842,27,-161.8,-0.0024,0.3598,1.0109
27_2,2025-07-19 01:07:38.635842,27,-30.8,-0.0058,0.3647,1.0109
27_3,2025-07-19 01:07:38.735842,27,-30.8,-0.0056,0.3574,1.0151
30_1,2025-07-19 01:07:38.834261,30,-292.9,0.0004,0.3586,1.0097
30_2,2025-07-19 01:07:38.934261,30,-161.8,-0.007,0.3659,1.0124
30_3,2025-07-19 01:07:39.034261,30,-292.9,-0.007,0.3564,1.0117
33_1,2025-07-19 01:07:39.132961,33,-292.9,-0.0053,0.3649,1.0126
33_2,2025-07-19 01:07:39.232961,33,-161.8,0.0007,0.364,1.0104
33_3,2025-07-19 01:07:39.332961,33,-686.1,-0.0024,0.3579,1.019
36_1,2025-07-19 01:07:39.437799,36,-555.1,-0.0048,0.363,1.0124
36_2,2025-07-19 01:07:39.537799,36,-161.8,-0.0043,0.3605,1.0183
36_3,2025-07-19 01:07:39.637799,36,-555.1,-0.0019,0.3596,1.0048
45_1,2025-07-19 01:07:40.331488,45,-424.0,-0.0085,0.3598,1.0183
45_2,2025-07-19 01:07:40.431488,45,-292.9,-0.0051,0.3588,1.0014
45_3,2025-07-19 01:07:40.531488,45,-555.1,-0.0046,0.3608,1.0017
54_1,2025-07-19 01:07:41.237200,54,-424.0,-0.0034,0.3645,1.0039
54_2,2025-07-19 01:07:41.337200,54,-30.8,0.0034,0.362,1.0104
54_3,2025-07-19 01:07:41.437200,54,100.3,0.0065,0.3605,1.0139
60_1,2025-07-19 01:07:41.836015,60,-555.1,-0.0012,0.3613,1.0241
60_2,2025-07-19 01:07:41.936015,60,-30.8,-0.0029,0.363,1.0114
60_3,2025-07-19 01:07:42.036015,60,-30.8,-0.0024,0.3666,1.0126
66_1,2025-07-19 01:07:42.431476,66,-161.8,-0.0251,0.3796,0.9814
66_2,2025-07-19 01:07:42.531476,66,-30.8,-0.0043,0.3627,1.0039
66_3,2025-07-19 01:07:42.631476,66,-292.9,-0.0034,0.3605,1.0153
72_1,2025-07-19 01:07:43.096481,72,-424.0,-0.0004,0.3676,1.0158
72_2,2025-07-19 01:07:43.196481,72,-161.8,-0.0004,0.3608,1.0126
72_3,2025-07-19 01:07:43.296481,72,100.3,-0.0009,0.3615,1.0092
75_1,2025-07-19 01:07:43.334494,75,-292.9,-0.0026,0.3603,1.0104
75_2,2025-07-19 01:07:43.434494,75,-555.1,-0.0014,0.361,1.0102
75_3,2025-07-19 01:07:43.534494,75,-292.9,-0.0058,0.3603,1.0063
81_1,2025-07-19 01:07:43.933339,81,-424.0,0.0,0.3627,1.0283
81_2,2025-07-19 01:07:44.033339,81,-161.8,-0.0073,0.3576,1.0122
81_3,2025-07-19 01:07:44.133339,81,-292.9,-0.0026,0.361,1.009
84_1,2025-07-19 01:07:44.230064,84,-555.1,-0.0034,0.3596,1.0068
84_2,2025-07-19 01:07:44.330064,84,-292.9,-0.0043,0.3603,1.0119
84_3,2025-07-19 01:07:44.430064,84,100.3,-0.0063,0.3562,1.0114
87_1,2025-07-19 01:07:44.537942,87,-161.8,-0.0048,0.3632,1.0075
87_2,2025-07-19 01:07:44.637942,87,-424.0,-0.0053,0.3623,1.0153
87_3,2025-07-19 01:07:44.737942,87,-292.9,-0.0036,0.3593,1.0114
90_1,2025-07-19 01:07:44.835029,90,-30.8,-0.0024,0.3627,1.0109
90_2,2025-07-19 01:07:44.935029,90,100.3,-0.007,0.364,1.0148
90_3,2025-07-19 01:07:45.035029,90,-161.8,0.007,0.3623,1.0053
93_1,2025-07-19 01:07:45.129926,93,-686.1,0.0029,0.3676,1.018
93_2,2025-07-19 01:07:45.229926,93,-292.9,-0.0036,0.3613,1.0202
93_3,2025-07-19 01:07:45.329926,93,-161.8,-0.008,0.3601,1.0134
96_1,2025-07-19 01:07:45.433107,96,-30.8,-0.0058,0.3623,1.0041
96_2,2025-07-19 01:07:45.533107,96,100.3,-0.0039,0.3613,1.0141
96_3,2025-07-19 01:07:45.633107,96,-292.9,-0.0109,0.3581,1.0068
99_1,2025-07-19 01:07:45.730707,99,-161.8,0.0007,0.3603,1.0095
99_2,2025-07-19 01:07:45.830707,99,-292.9,-0.0007,0.3657,1.0056
99_3,2025-07-19 01:07:45.930707,99,-555.1,-0.0129,0.362,1.0012
102_1,2025-07-19 01:07:46.029198,102,-292.9,-0.0009,0.3632,1.0107
102_2,2025-07-19 01:07:46.129198,102,-292.9,-0.0043,0.3642,1.0183
102_3,2025-07-19 01:07:46.229198,102,-555.1,-0.0017,0.3635,1.0158
105_1,2025-07-19 01:07:46.334831,105,-686.1,-0.0053,0.3591,1.0114
105_2,2025-07-19 01:07:46.434831,105,-686.1,-0.0009,0.3615,1.0266
105_3,2025-07-19 01:07:46.534831,105,-555.1,0.0024,0.3608,1.0087
111_1,2025-07-19 01:07:46.929304,111,-292.9,-0.0043,0.3588,1.0136
111_2,2025-07-19 01:07:47.029304,111,-686.1,-0.0085,0.3588,1.0102
111_3,2025-07-19 01:07:47.129304,111,-817.2,-0.0051,0.3625,1.0163
114_1,2025-07-19 01:07:47.232367,114,-424.0,-0.0051,0.3645,1.0151
114_2,2025-07-19 01:07:47.332367,114,-424.0,-0.0034,0.3659,1.0117
114_3,2025-07-19 01:07:47.432367,114,-424.0,-0.0009,0.3559,1.0139
117_1,2025-07-19 01:07:47.535238,117,-292.9,0.0258,0.3605,1.0563
117_2,2025-07-19 01:07:47.635238,117,-424.0,0.0097,0.3618,1.0012
117_3,2025-07-19 01:07:47.735238,117,-555.1,-0.0026,0.3603,1.0073
120_1,2025-07-19 01:07:47.833929,120,-424.0,-0.0021,0.362,1.0083
120_2,2025-07-19 01:07:47.933929,120,-555.1,-0.0009,0.3605,1.017
120_3,2025-07-19 01:07:48.033929,120,-424.0,-0.0046,0.3569,1.0107
123_1,2025-07-19 01:07:48.136546,123,-292.9,-0.0053,0.3593,1.0058
123_2,2025-07-19 01:07:48.236546,123,-686.1,-0.0021,0.3645,1.0146
123_3,2025-07-19 01:07:48.336546,123,-686.1,-0.0012,0.362,1.0146
129_1,2025-07-19 01:07:48.733711,129,-555.1,-0.0046,0.362,1.0114
129_2,2025-07-19 01:07:48.833711,129,-686.1,-0.0063,0.3615,1.017
129_3,2025-07-19 01:07:48.933711,129,-424.0,-0.0024,0.3576,1.0178
135_1,2025-07-19 01:07:49.331042,135,-424.0,-0.0031,0.3632,1.0109
135_2,2025-07-19 01:07:49.431042,135,-424.0,-0.0039,0.3647,1.0075
135_3,2025-07-19 01:07:49.531042,135,-686.1,-0.0009,0.362,1.0065
138_1,2025-07-19 01:07:49.633677,138,-292.9,-0.0009,0.3601,1.0075
138_2,2025-07-19 01:07:49.733677,138,-30.8,-0.0024,0.3613,1.0131
138_3,2025-07-19 01:07:49.833677,138,-161.8,-0.0029,0.3603,1.0163
141_1,2025-07-19 01:07:49.938248,141,-292.9,-0.0048,0.3618,1.0146
141_2,2025-07-19 01:07:50.038248,141,-555.1,-0.0031,0.3608,1.0104
141_3,2025-07-19 01:07:50.138248,141,-555.1,-0.0014,0.3627,1.0161
150_1,2025-07-19 01:07:50.833189,150,-292.9,0.0024,0.3503,1.0073
150_2,2025-07-19 01:07:50.933189,150,-424.0,-0.0029,0.3613,1.0075
150_3,2025-07-19 01:07:51.033189,150,-161.8,0.0002,0.363,1.0083
159_1,2025-07-19 01:07:51.737051,159,-555.1,-0.0002,0.3637,1.0183
159_2,2025-07-19 01:07:51.837051,159,-555.1,-0.0024,0.3588,1.0156
159_3,2025-07-19 01:07:51.937051,159,-424.0,-0.0146,0.3698,1.0031
162_1,2025-07-19 01:07:52.032389,162,-424.0,-0.0332,0.3649,1.0112
162_2,2025-07-19 01:07:52.132389,162,-161.8,-0.0083,0.3586,1.0073
162_3,2025-07-19 01:07:52.232389,162,-292.9,-0.007,0.3625,1.0134
165_1,2025-07-19 01:07:52.331093,165,-292.9,-0.0102,0.3652,1.0195
165_2,2025-07-19 01:07:52.431093,165,-161.8,0.0058,0.3576,1.0278
165_3,2025-07-19 01:07:52.531093,165,-292.9,-0.0024,0.3588,1.0148
168_1,2025-07-19 01:07:52.630478,168,-292.9,-0.0021,0.363,1.0126
168_2,2025-07-19 01:07:52.730478,168,-292.9,-0.0041,0.3671,1.0129
168_3,2025-07-19 01:07:52.830478,168,-292.9,-0.0041,0.3608,1.0148
172_1,2025-07-19 01:07:53.094954,172,100.3,-0.0078,0.3574,1.018
172_2,2025-07-19 01:07:53.194954,172,231.4,-0.0056,0.364,1.0104
172_3,2025-07-19 01:07:53.294954,172,-161.8,-0.0075,0.362,1.0129
180_1,2025-07-19 01:07:54.130335,180,100.3,-0.0039,0.3601,1.0126
180_2,2025-07-19 01:07:54.230335,180,100.3,-0.0043,0.3593,1.0163
180_3,2025-07-19 01:07:54.330335,180,100.3,-0.0063,0.3579,1.0205
183_1,2025-07-19 01:07:54.131262,183,100.3,-0.0034,0.3679,0.9948
183_2,2025-07-19 01:07:54.231262,183,-292.9,-0.0048,0.3608,1.0117
183_3,2025-07-19 01:07:54.331262,183,-555.1,0.0012,0.3503,1.0227
186_1,2025-07-19 01:07:54.438225,186,-424.0,-0.0109,0.3627,1.0156
186_2,2025-07-19 01:07:54.538225,186,-292.9,-0.0036,0.3618,1.0095
186_3,2025-07-19 01:07:54.638225,186,-161.8,-0.0014,0.363,1.0126
189_1,2025-07-19 01:07:54.733524,189,-161.8,-0.0068,0.3613,1.017
189_2,2025-07-19 01:07:54.833524,189,100.3,-0.0043,0.3627,1.0107
189_3,2025-07-19 01:07:54.933524,189,-292.9,-0.0021,0.3586,1.0092
192_1,2025-07-19 01:07:55.037879,192,-686.1,-0.0012,0.3605,1.0166
192_2,2025-07-19 01:07:55.137879,192,-292.9,-0.0012,0.3593,1.0129
192_3,2025-07-19 01:07:55.237879,192,-424.0,-0.0019,0.3615,1.0178
195_1,2025-07-19 01:07:55.330985,195,-424.0,-0.0024,0.3615,1.0117
195_2,2025-07-19 01:07:55.430985,195,-424.0,-0.0061,0.3598,1.0156
195_3,2025-07-19 01:07:55.530985,195,-555.1,-0.0034,0.3552,1.009
198_1,2025-07-19 01:07:55.654421,198,-555.1,0.0012,0.3613,1.0
198_2,2025-07-19 01:07:55.754421,198,-555.1,-0.0151,0.3637,0.9868
198_3,2025-07-19 01:07:55.854421,198,-686.1,-0.0222,0.3635,1.0119
204_1,2025-07-19 01:07:56.239021,204,-817.2,-0.0043,0.3571,1.0151
204_2,2025-07-19 01:07:56.339021,204,-555.1,-0.0004,0.3654,1.0129
204_3,2025-07-19 01:07:56.439021,204,-424.0,-0.0056,0.3576,1.0095
207_1,2025-07-19 01:07:56.534640,207,-686.1,-0.0068,0.3637,1.0122
207_2,2025-07-19 01:07:56.634640,207,-555.1,0.0014,0.3601,1.0117
207_3,2025-07-19 01:07:56.734640,207,-424.0,-0.0012,0.3652,1.0122
210_1,2025-07-19 01:07:56.829295,210,-686.1,-0.0019,0.362,1.0202
210_2,2025-07-19 01:07:56.929295,210,-555.1,-0.0046,0.3652,1.0187
210_3,2025-07-19 01:07:57.029295,210,-555.1,-0.0031,0.361,1.01
213_1,2025-07-19 01:07:57.133050,213,-555.1,-0.0019,0.3603,1.0119
213_2,2025-07-19 01:07:57.233050,213,-424.0,-0.0017,0.3623,1.0151
213_3,2025-07-19 01:07:57.333050,213,-292.9,-0.0007,0.3618,1.0156
219_1,2025-07-19 01:07:57.734784,219,-424.0,-0.0061,0.3618,1.0141
219_2,2025-07-19 01:07:57.834784,219,-292.9,-0.0246,0.3706,0.9909
219_3,2025-07-19 01:07:57.934784,219,-555.1,-0.0009,0.3579,1.0109
222_1,2025-07-19 01:07:58.039586,222,-555.1,-0.0073,0.3608,1.0134
222_2,2025-07-19 01:07:58.139586,222,-292.9,-0.0026,0.3593,1.0136
222_3,2025-07-19 01:07:58.239586,222,-292.9,-0.0041,0.3601,1.017
228_1,2025-07-19 01:07:58.634714,228,-161.8,-0.008,0.3586,1.0112
228_2,2025-07-19 01:07:58.734714,228,-292.9,-0.0031,0.3642,1.0151
228_3,2025-07-19 01:07:58.834714,228,-686.1,-0.0026,0.3564,1.0097
231_1,2025-07-19 01:07:58.936716,231,-686.1,0.0002,0.3623,1.0134
231_2,2025-07-19 01:07:59.036716,231,-292.9,-0.0026,0.3588,1.0161
231_3,2025-07-19 01:07:59.136716,231,-292.9,-0.0092,0.3608,1.0175
234_1,2025-07-19 01:07:59.236234,234,-555.1,-0.0024,0.3605,1.0153
234_2,2025-07-19 01:07:59.336234,234,-686.1,-0.0046,0.3593,1.0107
234_3,2025-07-19 01:07:59.436234,234,-686.1,-0.0021,0.3623,1.0124
240_1,2025-07-19 01:07:59.832469,240,-555.1,-0.0048,0.3603,1.0197
240_2,2025-07-19 01:07:59.932469,240,-424.0,-0.0004,0.3632,1.0114
240_3,2025-07-19 01:08:00.032469,240,-161.8,-0.0002,0.3603,1.0102
243_1,2025-07-19 01:08:00.130314,243,-424.0,-0.0041,0.3598,1.0229
243_2,2025-07-19 01:08:00.230314,243,-555.1,-0.0068,0.3632,1.0092
243_3,2025-07-19 01:08:00.330314,243,-292.9,-0.0041,0.3598,1.0236
246_1,2025-07-19 01:08:00.437053,246,-555.1,-0.0097,0.3569,1.0158
246_2,2025-07-19 01:08:00.537053,246,-555.1,-0.0019,0.3601,1.009
246_3,2025-07-19 01:08:00.637053,246,-555.1,-0.0009,0.3603,1.0173
252_1,2025-07-19 01:08:01.033951,252,-686.1,-0.0012,0.362,1.0119
252_2,2025-07-19 01:08:01.133951,252,-555.1,-0.0053,0.3623,1.0102
252_3,2025-07-19 01:08:01.233951,252,-292.9,-0.0036,0.363,1.0107
255_1,2025-07-19 01:08:01.331272,255,-161.8,-0.0004,0.3586,1.0056
255_2,2025-07-19 01:08:01.431272,255,-161.8,-0.0043,0.3596,1.0078
255_3,2025-07-19 01:08:01.531272,255,-161.8,0.0012,0.3588,1.0107
2_1,2025-07-19 01:08:01.635083,2,-292.9,-0.0017,0.3642,1.0168
2_2,2025-07-19 01:08:01.735083,2,-292.9,-0.0017,0.3613,1.0175
2_3,2025-07-19 01:08:01.835083,2,-292.9,-0.0014,0.3615,1.0129
5_1,2025-07-19 01:08:01.952983,5,-555.1,-0.0058,0.3603,1.018
5_2,2025-07-19 01:08:02.052983,5,-817.2,-0.0046,0.3642,1.0151
5_3,2025-07-19 01:08:02.152983,5,-555.1,-0.0029,0.3608,1.0095
8_1,2025-07-19 01:08:02.229686,8,-555.1,-0.0092,0.361,1.0129
8_2,2025-07-19 01:08:02.329686,8,-686.1,-0.0024,0.3605,1.0095
8_3,2025-07-19 01:08:02.429686,8,-555.1,-0.0026,0.3637,1.0114
14_1,2025-07-19 01:08:02.830741,14,-686.1,-0.0039,0.3659,1.0107
14_2,2025-07-19 01:08:02.930741,14,-424.0,-0.0056,0.3625,1.0175
14_3,2025-07-19 01:08:03.030741,14,-292.9,-0.007,0.3652,1.0131
17_1,2025-07-19 01:08:03.101748,17,-686.1,-0.0012,0.3647,1.0078
17_2,2025-07-19 01:08:03.201748,17,-555.1,-0.0041,0.361,1.0175
17_3,2025-07-19 01:08:03.301748,17,-424.0,-0.0036,0.3625,1.0136
20_1,2025-07-19 01:08:03.436134,20,-686.1,-0.0075,0.3605,1.0097
20_2,2025-07-19 01:08:03.536134,20,-292.9,0.0014,0.3593,1.018
20_3,2025-07-19 01:08:03.636134,20,-424.0,-0.0051,0.362,1.0107
23_1,2025-07-19 01:08:03.734373,23,-948.3,-0.0036,0.3608,1.0109
23_2,2025-07-19 01:08:03.834373,23,-555.1,-0.0046,0.363,1.0063
23_3,2025-07-19 01:08:03.934373,23,-292.9,-0.0041,0.3647,1.0139
26_1,2025-07-19 01:08:04.034356,26,-686.1,0.0009,0.3618,1.0075
26_2,2025-07-19 01:08:04.134356,26,-817.2,-0.0004,0.3618,1.0134
26_3,2025-07-19 01:08:04.234356,26,-686.1,-0.0029,0.3571,1.0126
29_1,2025-07-19 01:08:04.340282,29,-424.0,-0.0012,0.361,1.0087
29_2,2025-07-19 01:08:04.440282,29,-555.1,-0.0036,0.3613,1.0036
29_3,2025-07-19 01:08:04.540282,29,-817.2,-0.0034,0.3596,1.0122
32_1,2025-07-19 01:08:04.636869,32,-686.1,-0.0024,0.3591,1.0104
32_2,2025-07-19 01:08:04.736869,32,-424.0,0.0031,0.3601,1.0163
32_3,2025-07-19 01:08:04.836869,32,-555.1,-0.0041,0.3586,1.0168
35_1,2025-07-19 01:08:04.934106,35,-555.1,-0.0019,0.3613,1.0153
35_2,2025-07-19 01:08:05.034106,35,-555.1,-0.0002,0.3615,1.0122
35_3,2025-07-19 01:08:05.134106,35,-686.1,-0.0041,0.3605,1.0129
38_1,2025-07-19 01:08:05.232963,38,-292.9,-0.0007,0.361,1.0126
38_2,2025-07-19 01:08:05.332963,38,-30.8,-0.0061,0.3605,1.0168
38_3,2025-07-19 01:08:05.432963,38,-161.8,-0.0012,0.3605,1.0073
44_1,2025-07-19 01:08:05.834189,44,-161.8,-0.0043,0.362,1.0119
44_2,2025-07-19 01:08:05.934189,44,-292.9,-0.0021,0.3635,1.0131
44_3,2025-07-19 01:08:06.034189,44,-424.0,-0.0031,0.3664,1.0075
50_1,2025-07-19 01:08:06.430549,50,-555.1,-0.0026,0.3637,1.0158
50_2,2025-07-19 01:08:06.530549,50,-686.1,-0.0041,0.3613,1.0102
50_3,2025-07-19 01:08:06.630549,50,-686.1,-0.0019,0.3627,1.0151
53_1,2025-07-19 01:08:06.736638,53,-817.2,-0.0017,0.3615,1.0078
53_2,2025-07-19 01:08:06.836638,53,-817.2,-0.0048,0.3613,1.0158
53_3,2025-07-19 01:08:06.936638,53,-292.9,-0.0019,0.3605,1.0085
59_1,2025-07-19 01:08:07.335488,59,-817.2,-0.0029,0.3654,1.0187
59_2,2025-07-19 01:08:07.435488,59,-555.1,-0.0012,0.363,1.0104
59_3,2025-07-19 01:08:07.535488,59,-292.9,0.0004,0.3623,1.0129
62_1,2025-07-19 01:08:07.631868,62,-161.8,-0.0104,0.362,1.0148
62_2,2025-07-19 01:08:07.731868,62,-292.9,-0.0061,0.3586,1.0144
62_3,2025-07-19 01:08:07.831868,62,-424.0,-0.0034,0.3615,1.0153
65_1,2025-07-19 01:08:07.931271,65,-292.9,0.0097,0.3581,1.0187
65_2,2025-07-19 01:08:08.031271,65,-161.8,0.0039,0.3613,0.9997
65_3,2025-07-19 01:08:08.131271,65,-424.0,-0.0034,0.3603,1.0185
68_1,2025-07-19 01:08:08.231692,68,-424.0,-0.009,0.3618,0.996
68_2,2025-07-19 01:08:08.331692,68,-292.9,-0.0024,0.3579,1.0095
68_3,2025-07-19 01:08:08.431692,68,-424.0,-0.0014,0.3596,1.0148
71_1,2025-07-19 01:08:08.537802,71,-686.1,-0.0048,0.3598,1.0231
71_2,2025-07-19 01:08:08.637802,71,-555.1,0.0004,0.3593,1.0114
71_3,2025-07-19 01:08:08.737802,71,-424.0,-0.0036,0.3645,1.0122
74_1,2025-07-19 01:08:08.840379,74,-686.1,-0.0029,0.3593,1.0073
74_2,2025-07-19 01:08:08.940379,74,-686.1,-0.0048,0.3591,1.0104
74_3,2025-07-19 01:08:09.040379,74,-292.9,-0.009,0.3623,1.0068
83_1,2025-07-19 01:08:09.760488,83,-686.1,-0.0039,0.363,1.01
83_2,2025-07-19 01:08:09.860488,83,-555.1,-0.0017,0.3645,1.0141
83_3,2025-07-19 01:08:09.960488,83,-161.8,-0.0048,0.3632,1.0151
89_1,2025-07-19 01:08:10.338501,89,-424.0,-0.0053,0.3598,1.0056
89_2,2025-07-19 01:08:10.438501,89,-161.8,-0.0014,0.3574,1.0148
89_3,2025-07-19 01:08:10.538501,89,-161.8,-0.0024,0.3625,1.0161
92_1,2025-07-19 01:08:10.631195,92,100.3,-0.0092,0.3645,1.0117
92_2,2025-07-19 01:08:10.731195,92,-30.8,-0.0058,0.3623,1.0087
92_3,2025-07-19 01:08:10.831195,92,-30.8,-0.0024,0.362,1.0146
95_1,2025-07-19 01:08:10.936704,95,100.3,-0.0017,0.3637,1.0156
95_2,2025-07-19 01:08:11.036704,95,-30.8,-0.0017,0.363,1.0104
95_3,2025-07-19 01:08:11.136704,95,-161.8,-0.0024,0.362,1.0144
98_1,2025-07-19 01:08:11.231803,98,-555.1,-0.0051,0.3603,1.0083
98_2,2025-07-19 01:08:11.331803,98,-686.1,-0.0075,0.361,1.0131
98_3,2025-07-19 01:08:11.431803,98,-555.1,-0.0039,0.363,1.007
101_1,2025-07-19 01:08:11.533529,101,-292.9,-0.0009,0.3603,1.0139
101_2,2025-07-19 01:08:11.633529,101,-161.8,-0.0051,0.3593,1.0139
101_3,2025-07-19 01:08:11.733529,101,-424.0,-0.0012,0.3627,1.0075
104_1,2025-07-19 01:08:11.836242,104,-686.1,-0.0051,0.3623,1.0073
104_2,2025-07-19 01:08:11.936242,104,-817.2,-0.0041,0.364,1.0144
104_3,2025-07-19 01:08:12.036242,104,-424.0,-0.0034,0.3623,1.0083
107_1,2025-07-19 01:08:12.133045,107,-30.8,-0.0061,0.361,1.018
107_2,2025-07-19 01:08:12.233045,107,-555.1,-0.0034,0.363,1.0168
107_3,2025-07-19 01:08:12.333045,107,-686.1,-0.0041,0.3635,1.0117
110_1,2025-07-19 01:08:12.437919,110,-555.1,-0.0039,0.3613,1.0166
110_2,2025-07-19 01:08:12.537919,110,-555.1,-0.0048,0.3615,1.0139
110_3,2025-07-19 01:08:12.637919,110,-424.0,-0.0024,0.363,1.0119
116_1,2025-07-19 01:08:13.033107,116,-424.0,-0.0075,0.3649,1.0107
116_2,2025-07-19 01:08:13.133107,116,-424.0,-0.0014,0.3618,1.0129
116_3,2025-07-19 01:08:13.233107,116,-292.9,-0.0012,0.3596,1.02
119_1,2025-07-19 01:08:13.336877,119,-292.9,-0.0041,0.3566,1.0131
119_2,2025-07-19 01:08:13.436877,119,-292.9,-0.0048,0.3579,1.0102
119_3,2025-07-19 01:08:13.536877,119,-292.9,-0.0026,0.3671,1.0148
122_1,2025-07-19 01:08:13.941967,122,-555.1,-0.0039,0.3625,1.0209
122_2,2025-07-19 01:08:14.041967,122,-948.3,-0.0029,0.3591,1.0151
122_3,2025-07-19 01:08:14.141967,122,-817.2,-0.0041,0.3642,1.0144
126_1,2025-07-19 01:08:14.085542,126,-424.0,-0.007,0.3635,1.009
126_2,2025-07-19 01:08:14.185542,126,-686.1,-0.0048,0.3657,1.0151
126_3,2025-07-19 01:08:14.285542,126,-555.1,-0.0068,0.3608,1.01
131_1,2025-07-19 01:08:14.863112,131,-292.9,-0.0056,0.3662,1.0109
131_2,2025-07-19 01:08:14.963112,131,-686.1,-0.0051,0.3632,1.0158
131_3,2025-07-19 01:08:15.063112,131,-555.1,-0.0039,0.362,1.0107
134_1,2025-07-19 01:08:14.863789,134,-424.0,-0.0046,0.3613,1.0175
134_2,2025-07-19 01:08:14.963789,134,-555.1,-0.0024,0.3591,1.0151
134_3,2025-07-19 01:08:15.063789,134,-686.1,-0.0007,0.3583,1.0124
137_1,2025-07-19 01:08:15.130594,137,-686.1,-0.0075,0.3627,1.0104
137_2,2025-07-19 01:08:15.230594,137,-817.2,-0.0053,0.3613,1.0141
137_3,2025-07-19 01:08:15.330594,137,-555.1,-0.0051,0.3603,1.0114
140_1,2025-07-19 01:08:15.437896,140,-424.0,-0.0024,0.3574,1.0039
140_2,2025-07-19 01:08:15.537896,140,-686.1,-0.0048,0.3625,1.0131
140_3,2025-07-19 01:08:15.637896,140,-948.3,-0.0051,0.3613,1.01
143_1,2025-07-19 01:08:16.034738,143,-555.1,-0.0046,0.363,1.0139
143_2,2025-07-19 01:08:16.134738,143,-30.8,-0.0041,0.3637,1.0161
143_3,2025-07-19 01:08:16.234738,143,-292.9,-0.0075,0.3601,1.0085
146_1,2025-07-19 01:08:16.335581,146,-424.0,-0.0017,0.3613,1.018
146_2,2025-07-19 01:08:16.435581,146,-555.1,-0.0036,0.3593,1.0168
146_3,2025-07-19 01:08:16.535581,146,-555.1,-0.0065,0.3591,1.0097
149_1,2025-07-19 01:08:16.336229,149,-292.9,-0.0034,0.3603,1.017
149_2,2025-07-19 01:08:16.436229,149,-292.9,-0.0053,0.3659,1.0078
149_3,2025-07-19 01:08:16.536229,149,-555.1,-0.0056,0.3615,1.0122
152_1,2025-07-19 01:08:16.631860,152,-686.1,-0.0017,0.3593,1.0109
152_2,2025-07-19 01:08:16.731860,152,-817.2,-0.0043,0.3623,1.0122
152_3,2025-07-19 01:08:16.831860,152,-948.3,-0.0017,0.3593,1.0097
158_1,2025-07-19 01:08:17.232495,158,-292.9,-0.0004,0.361,1.0173
158_2,2025-07-19 01:08:17.332495,158,-555.1,-0.0041,0.3571,1.0124
158_3,2025-07-19 01:08:17.432495,158,-686.1,-0.0056,0.3657,1.0107
161_1,2025-07-19 01:08:17.533600,161,-424.0,-0.0007,0.3583,1.0166
161_2,2025-07-19 01:08:17.633600,161,-555.1,0.0014,0.3586,1.0026
161_3,2025-07-19 01:08:17.733600,161,-817.2,-0.0026,0.3605,1.007
165_1,2025-07-19 01:08:18.129971,165,-292.9,-0.0046,0.3618,1.0085
165_2,2025-07-19 01:08:18.229971,165,-292.9,-0.0002,0.3623,1.0156
165_3,2025-07-19 01:08:18.329971,165,-686.1,-0.0041,0.3603,1.0205
170_1,2025-07-19 01:08:18.437532,170,-292.9,-0.0014,0.361,1.0144
170_2,2025-07-19 01:08:18.537532,170,-161.8,0.0019,0.3601,1.0185
170_3,2025-07-19 01:08:18.637532,170,-424.0,-0.0063,0.3623,1.0117
173_1,2025-07-19 01:08:18.736366,173,-817.2,-0.0009,0.3632,1.0104
173_2,2025-07-19 01:08:18.836366,173,-817.2,-0.0053,0.3613,1.0112
173_3,2025-07-19 01:08:18.936366,173,-424.0,-0.0122,0.3542,0.9858
182_1,2025-07-19 01:08:19.631246,182,-424.0,-0.0031,0.3615,1.0163
182_2,2025-07-19 01:08:19.731246,182,-686.1,-0.0068,0.361,1.0136
182_3,2025-07-19 01:08:19.831246,182,-817.2,-0.0051,0.361,1.0083
188_1,2025-07-19 01:08:20.231958,188,-424.0,-0.0012,0.3645,1.0117
188_2,2025-07-19 01:08:20.331958,188,-817.2,0.0019,0.3642,1.0173
188_3,2025-07-19 01:08:20.431958,188,-686.1,-0.0007,0.3625,1.0078
194_1,2025-07-19 01:08:20.835750,194,-555.1,-0.0026,0.3637,1.0119
194_2,2025-07-19 01:08:20.935750,194,-424.0,-0.0029,0.3601,1.0156
194_3,2025-07-19 01:08:21.035750,194,-292.9,-0.0134,0.3754,1.0334
197_1,2025-07-19 01:08:21.137190,197,-817.2,-0.0153,0.3559,1.0366
197_2,2025-07-19 01:08:21.237190,197,-948.3,-0.0046,0.363,1.0153
197_3,2025-07-19 01:08:21.337190,197,-686.1,-0.0026,0.3601,1.0153
200_1,2025-07-19 01:08:21.455492,200,-555.1,-0.0078,0.3627,1.0104
200_2,2025-07-19 01:08:21.555492,200,-292.9,-0.0004,0.3632,1.0136
200_3,2025-07-19 01:08:21.655492,200,-161.8,-0.0051,0.3596,1.0129
203_1,2025-07-19 01:08:21.732292,203,-292.9,-0.0024,0.3588,1.0117
203_2,2025-07-19 01:08:21.832292,203,-424.0,-0.0021,0.3601,1.0053
203_3,2025-07-19 01:08:21.932292,203,-292.9,0.0007,0.3571,1.0126
212_1,2025-07-19 01:08:22.632916,212,-161.8,-0.0241,0.3632,1.0095
212_2,2025-07-19 01:08:22.732916,212,-424.0,-0.0397,0.373,0.9516
212_3,2025-07-19 01:08:22.832916,212,-817.2,-0.0097,0.3596,1.0017
215_1,2025-07-19 01:08:22.932590,215,-817.2,-0.0014,0.3605,1.0122
215_2,2025-07-19 01:08:23.032590,215,-686.1,-0.008,0.362,1.0026
215_3,2025-07-19 01:08:23.132590,215,-424.0,-0.0031,0.3625,1.0131
221_1,2025-07-19 01:08:23.536702,221,-948.3,-0.0002,0.361,1.0185
221_2,2025-07-19 01:08:23.636702,221,-686.1,-0.0087,0.3657,1.018
221_3,2025-07-19 01:08:23.736702,221,-817.2,-0.0056,0.3586,1.0136
224_1,2025-07-19 01:08:23.835234,224,-555.1,-0.0041,0.3652,1.019
224_2,2025-07-19 01:08:23.935234,224,-161.8,-0.0031,0.3601,1.0173
224_3,2025-07-19 01:08:24.035234,224,-555.1,-0.0058,0.3549,1.007
227_1,2025-07-19 01:08:24.132170,227,-555.1,-0.0012,0.363,1.0151
227_2,2025-07-19 01:08:24.232170,227,-161.8,-0.0012,0.3647,1.0141
227_3,2025-07-19 01:08:24.332170,227,-555.1,-0.0048,0.3601,1.0109
230_1,2025-07-19 01:08:24.437288,230,-686.1,-0.0039,0.3632,1.0129
230_2,2025-07-19 01:08:24.537288,230,-292.9,-0.0041,0.3615,1.0102
230_3,2025-07-19 01:08:24.637288,230,-686.1,-0.0051,0.361,1.0124
236_1,2025-07-19 01:08:25.036090,236,-817.2,-0.0026,0.3623,1.0126
236_2,2025-07-19 01:08:25.136090,236,-686.1,-0.007,0.3615,1.0134
236_3,2025-07-19 01:08:25.236090,236,-555.1,-0.0026,0.3613,1.0175
239_1,2025-07-19 01:08:25.335449,239,-817.2,-0.0043,0.362,1.0129
239_2,2025-07-19 01:08:25.435449,239,-948.3,-0.0048,0.3623,1.018
239_3,2025-07-19 01:08:25.535449,239,-1079.3,-0.0056,0.361,1.009
242_1,2025-07-19 01:08:25.634035,242,-948.3,-0.0021,0.3593,1.0146
242_2,2025-07-19 01:08:25.734035,242,-555.1,-0.0043,0.3591,1.0161
242_3,2025-07-19 01:08:25.834035,242,-686.1,-0.0073,0.3579,1.0144
248_1,2025-07-19 01:08:26.232604,248,-817.2,-0.0026,0.3635,1.0202
248_2,2025-07-19 01:08:26.332604,248,-817.2,-0.0029,0.3608,1.0065
248_3,2025-07-19 01:08:26.432604,248,-555.1,-0.0043,0.3591,1.0048
254_1,2025-07-19 01:08:26.832467,254,-686.1,0.0012,0.3632,1.0126
254_2,2025-07-19 01:08:26.932467,254,-817.2,-0.0061,0.3627,1.0129
254_3,2025-07-19 01:08:27.032467,254,-686.1,-0.0048,0.3627,1.0097
1_1,2025-07-19 01:08:27.132947,1,-686.1,-0.0017,0.3603,1.019
1_2,2025-07-19 01:08:27.232947,1,-948.3,-0.0056,0.3608,1.0139
1_3,2025-07-19 01:08:27.332947,1,-686.1,-0.0053,0.3581,1.0104
7_1,2025-07-19 01:08:27.733883,7,-555.1,-0.0051,0.3618,1.0097
7_2,2025-07-19 01:08:27.833883,7,-424.0,-0.0012,0.3608,1.0146
7_3,2025-07-19 01:08:27.933883,7,-555.1,-0.0026,0.3625,1.0073
10_1,2025-07-19 01:08:28.036722,10,-292.9,-0.0073,0.3576,1.0095
10_2,2025-07-19 01:08:28.136722,10,-424.0,-0.0021,0.3598,1.0083
10_3,2025-07-19 01:08:28.236722,10,-424.0,-0.0031,0.3627,1.0124
16_1,2025-07-19 01:08:28.656672,16,-555.1,-0.0041,0.3608,1.0161
16_2,2025-07-19 01:08:28.756672,16,-686.1,0.0048,0.3696,0.9995
16_3,2025-07-19 01:08:28.856672,16,-686.1,-0.009,0.3605,1.0163
19_1,2025-07-19 01:08:28.939455,19,-292.9,-0.0048,0.3645,1.0114
19_2,2025-07-19 01:08:29.039455,19,-555.1,-0.0017,0.3593,1.0136
19_3,2025-07-19 01:08:29.139455,19,-817.2,-0.0346,0.3813,0.9633
22_1,2025-07-19 01:08:29.232830,22,-948.3,-0.0124,0.3581,1.0153
22_2,2025-07-19 01:08:29.332830,22,-686.1,-0.0002,0.3623,1.0068
22_3,2025-07-19 01:08:29.432830,22,-686.1,-0.0009,0.3642,1.0107
25_1,2025-07-19 01:08:29.536962,25,-686.1,0.0134,0.3618,1.0139
25_2,2025-07-19 01:08:29.636962,25,-686.1,-0.0141,0.3593,1.0026
25_3,2025-07-19 01:08:29.736962,25,-555.1,-0.0095,0.3591,1.0124
28_1,2025-07-19 01:08:29.833463,28,-424.0,-0.0029,0.3569,1.0131
28_2,2025-07-19 01:08:29.933463,28,-686.1,-0.0014,0.3608,1.0163
28_3,2025-07-19 01:08:30.033463,28,-424.0,-0.0002,0.3571,1.0187
31_1,2025-07-19 01:08:30.136105,31,-424.0,0.0009,0.3662,1.0053
31_2,2025-07-19 01:08:30.236105,31,-555.1,-0.0002,0.3576,1.0068
31_3,2025-07-19 01:08:30.336105,31,-161.8,-0.0051,0.3588,1.0141
34_1,2025-07-19 01:08:30.432577,34,-161.8,-0.0004,0.363,1.01
34_2,2025-07-19 01:08:30.532577,34,-424.0,0.0024,0.3632,1.0026
34_3,2025-07-19 01:08:30.632577,34,-424.0,-0.0061,0.3618,1.0034
46_1,2025-07-19 01:08:31.631605,46,-424.0,-0.0029,0.3627,1.0063
46_2,2025-07-19 01:08:31.731605,46,-424.0,-0.0061,0.3613,1.0141
46_3,2025-07-19 01:08:31.831605,46,-555.1,-0.0039,0.3613,1.0212
49_1,2025-07-19 01:08:31.937933,49,-686.1,-0.0021,0.3601,1.019
49_2,2025-07-19 01:08:32.037933,49,-817.2,0.0051,0.3647,1.0163
49_3,2025-07-19 01:08:32.137933,49,-817.2,-0.0024,0.3681,1.0161
55_1,2025-07-19 01:08:32.534839,55,-686.1,0.0112,0.3627,1.0297
55_2,2025-07-19 01:08:32.634839,55,-686.1,0.0009,0.3503,1.0114
55_3,2025-07-19 01:08:32.734839,55,-30.8,-0.0014,0.3586,1.0183
58_1,2025-07-19 01:08:33.431446,58,-161.8,0.0092,0.3613,1.0288
58_2,2025-07-19 01:08:33.531446,58,-555.1,-0.008,0.3732,1.0104
58_3,2025-07-19 01:08:33.631446,58,-686.1,-0.0031,0.363,1.0012
64_1,2025-07-19 01:08:33.431867,64,-555.1,-0.007,0.3615,1.0253
64_2,2025-07-19 01:08:33.531867,64,-30.8,-0.0048,0.3596,1.0283
64_3,2025-07-19 01:08:33.631867,64,100.3,-0.0051,0.3608,1.0227
67_1,2025-07-19 01:08:33.734807,67,-555.1,-0.0061,0.3583,1.0166
67_2,2025-07-19 01:08:33.834807,67,-555.1,-0.0019,0.3669,1.0122
67_3,2025-07-19 01:08:33.934807,67,-555.1,0.0092,0.3481,1.0119
71_1,2025-07-19 01:08:34.102003,71,-817.2,-0.0014,0.3635,1.0083
71_2,2025-07-19 01:08:34.202003,71,-817.2,-0.0034,0.3591,1.0078
71_3,2025-07-19 01:08:34.302003,71,-292.9,-0.0021,0.362,1.009
79_1,2025-07-19 01:08:34.935412,79,-1079.3,-0.0014,0.3627,1.0212
79_2,2025-07-19 01:08:35.035412,79,-948.3,-0.0002,0.3588,1.0122
79_3,2025-07-19 01:08:35.135412,79,-555.1,0.0031,0.3552,1.0109
85_1,2025-07-19 01:08:35.532331,85,-948.3,-0.0258,0.371,1.0134
85_2,2025-07-19 01:08:35.632331,85,-817.2,-0.0034,0.3605,1.017
85_3,2025-07-19 01:08:35.732331,85,-686.1,-0.0007,0.3637,1.019
91_1,2025-07-19 01:08:36.134615,91,-948.3,-0.0065,0.3586,1.0119
91_2,2025-07-19 01:08:36.234615,91,-555.1,-0.0078,0.361,1.0144
91_3,2025-07-19 01:08:36.334615,91,-555.1,-0.0107,0.3605,1.0146
94_1,2025-07-19 01:08:36.436062,94,-686.1,-0.0063,0.3613,1.008
94_2,2025-07-19 01:08:36.536062,94,-424.0,-0.0024,0.3625,1.0146
94_3,2025-07-19 01:08:36.636062,94,-686.1,-0.0043,0.3598,1.0097
97_1,2025-07-19 01:08:36.736144,97,-555.1,-0.0014,0.3583,1.0122
97_2,2025-07-19 01:08:36.836144,97,-292.9,-0.0024,0.3605,1.0114
97_3,2025-07-19 01:08:36.936144,97,-686.1,-0.0021,0.3608,1.0109
100_1,2025-07-19 01:08:37.031242,100,-555.1,-0.02,0.3669,0.9997
100_2,2025-07-19 01:08:37.131242,100,-555.1,0.0029,0.3625,1.0107
100_3,2025-07-19 01:08:37.231242,100,-30.8,0.0009,0.3525,1.0031
103_1,2025-07-19 01:08:37.337320,103,-686.1,-0.0112,0.3623,1.008
103_2,2025-07-19 01:08:37.437320,103,-1079.3,-0.0065,0.3615,1.0058
103_3,2025-07-19 01:08:37.537320,103,-686.1,-0.0014,0.3635,1.0161
106_1,2025-07-19 01:08:37.632610,106,-555.1,-0.0017,0.3603,1.01
106_2,2025-07-19 01:08:37.732610,106,-424.0,-0.0026,0.3615,1.0087
106_3,2025-07-19 01:08:37.832610,106,-161.8,-0.0034,0.3632,1.0075
109_1,2025-07-19 01:08:37.934027,109,-424.0,-0.0004,0.3593,1.0148
109_2,2025-07-19 01:08:38.034027,109,-424.0,-0.0009,0.3647,1.0097
109_3,2025-07-19 01:08:38.134027,109,-948.3,0.0009,0.3608,1.0126
112_1,2025-07-19 01:08:38.202131,112,-1079.3,-0.0068,0.3632,1.0141
112_2,2025-07-19 01:08:38.302131,112,-424.0,-0.0021,0.3613,1.0134
112_3,2025-07-19 01:08:38.402131,112,-292.9,-0.0043,0.362,1.0056
115_1,2025-07-19 01:08:38.532729,115,-686.1,-0.0051,0.3637,1.01
115_2,2025-07-19 01:08:38.632729,115,-817.2,-0.0034,0.3608,1.0236
115_3,2025-07-19 01:08:38.732729,115,-817.2,-0.0073,0.3618,1.01
124_1,2025-07-19 01:08:39.437313,124,-555.1,-0.0041,0.3581,1.0078
124_2,2025-07-19 01:08:39.537313,124,-948.3,-0.0068,0.3623,1.0114
124_3,2025-07-19 01:08:39.637313,124,-1210.4,-0.0068,0.3618,1.0068
127_1,2025-07-19 01:08:39.735040,127,-686.1,-0.0004,0.363,1.0151
127_2,2025-07-19 01:08:39.835040,127,-686.1,-0.0021,0.3623,1.0104
127_3,2025-07-19 01:08:39.935040,127,-424.0,-0.0029,0.3627,1.0163
133_1,2025-07-19 01:08:40.335211,133,-686.1,-0.0026,0.3569,1.019
133_2,2025-07-19 01:08:40.435211,133,-424.0,-0.0048,0.3635,1.0124
133_3,2025-07-19 01:08:40.535211,133,-817.2,-0.0039,0.3637,1.0126
139_1,2025-07-19 01:08:40.934888,139,-686.1,-0.0026,0.3605,1.0129
139_2,2025-07-19 01:08:41.034888,139,-817.2,-0.0058,0.3613,1.008
139_3,2025-07-19 01:08:41.134888,139,-686.1,-0.0021,0.3613,1.0083
145_1,2025-07-19 01:08:41.837027,145,-817.2,-0.0009,0.3598,1.0122
145_2,2025-07-19 01:08:41.937027,145,-948.3,-0.0065,0.3591,1.0112
145_3,2025-07-19 01:08:42.037027,145,-817.2,-0.0017,0.3635,1.0126
148_1,2025-07-19 01:08:41.837442,148,-555.1,-0.0063,0.3605,1.0144
148_2,2025-07-19 01:08:41.937442,148,-817.2,-0.0056,0.3608,1.0048
148_3,2025-07-19 01:08:42.037442,148,-948.3,-0.0036,0.3647,1.0173
151_1,2025-07-19 01:08:42.132706,151,-555.1,-0.0024,0.363,1.008
151_2,2025-07-19 01:08:42.232706,151,-555.1,-0.0004,0.3591,1.01
151_3,2025-07-19 01:08:42.332706,151,-686.1,-0.0009,0.3627,1.0158
154_1,2025-07-19 01:08:42.431416,154,-555.1,-0.0024,0.3598,1.0112
154_2,2025-07-19 01:08:42.531416,154,-555.1,-0.0053,0.363,1.0185
