timestamp,packet_id,pressure,accel_x,accel_y,accel_z
2025-07-16 15:14:14.917108,91,2984.4,0.0021,0.0908,1.0827
2025-07-16 15:14:15.017108,91,3246.5,-0.0031,0.092,1.0825
2025-07-16 15:14:15.117108,91,-3044.9,-0.0026,0.0915,1.0832
2025-07-16 15:14:15.298163,95,2853.3,-0.0021,0.0925,1.0808
2025-07-16 15:14:15.398163,95,2722.3,-0.0031,0.0927,1.0793
2025-07-16 15:14:15.498163,95,2722.3,-0.0026,0.0917,1.083
2025-07-16 15:14:16.089842,103,2329.0,-0.0009,0.0913,1.0793
2025-07-16 15:14:16.189842,103,2329.0,-0.0075,0.09,1.0795
2025-07-16 15:14:16.289842,103,2460.1,-0.0026,0.0888,1.0837
2025-07-16 15:14:16.425737,105,2853.3,-0.0051,0.0874,1.0837
2025-07-16 15:14:16.525737,105,2853.3,-0.0043,0.0891,1.0773
2025-07-16 15:14:17.513523,117,-3176.0,-0.0014,0.0915,1.0854
2025-07-16 15:14:17.613523,117,-3176.0,-0.0009,0.0881,1.083
2025-07-16 15:14:17.713523,117,3115.5,0.0017,0.0915,1.0786
2025-07-16 15:14:17.801966,118,3115.5,-0.0026,0.0915,1.0822
2025-07-16 15:14:17.891786,119,2984.4,0.0007,0.0881,1.0732
2025-07-16 15:14:18.410980,126,2984.4,-0.0051,0.0898,1.0754
2025-07-16 15:14:18.510980,126,2591.2,-0.0014,0.0908,1.0866
2025-07-16 15:14:18.610980,126,2198.0,-0.0026,0.0891,1.0834
2025-07-16 15:14:20.392168,146,3246.5,0.0021,0.0881,1.0834
2025-07-16 15:14:20.492168,146,2722.3,0.0009,0.0881,1.082
2025-07-16 15:14:20.592168,146,2722.3,-0.0014,0.0922,1.0793
2025-07-16 15:14:21.090524,153,3246.5,-0.0046,0.0886,1.0854
2025-07-16 15:14:21.190524,153,3246.5,-0.0046,0.0915,1.0822
2025-07-16 15:14:21.290524,153,3115.5,0.0009,0.0908,1.0812
2025-07-16 15:14:22.088931,163,2853.3,-0.0009,0.0922,1.0842
2025-07-16 15:14:22.188931,163,2984.4,-0.0004,0.0891,1.0854
2025-07-16 15:14:22.288931,163,2853.3,-0.0036,0.0944,1.0766
2025-07-16 15:14:22.392264,166,2984.4,-0.0014,0.0935,1.0778
2025-07-16 15:14:22.492264,166,2722.3,-0.0012,0.0927,1.0803
2025-07-16 15:14:22.592264,166,2591.2,-0.0019,0.0905,1.0786
2025-07-16 15:14:22.890131,171,2984.4,-0.0002,0.0905,1.0791
2025-07-16 15:14:22.990131,171,2984.4,-0.0002,0.0908,1.0793
2025-07-16 15:14:23.090131,171,2853.3,-0.0002,0.0917,1.08
2025-07-16 15:14:24.501559,187,2984.4,0.0012,0.093,1.0795
2025-07-16 15:14:24.601559,187,2853.3,-0.0002,0.0895,1.0878
2025-07-16 15:14:24.701559,187,2984.4,-0.0012,0.093,1.0822
2025-07-16 15:14:24.798264,190,3246.5,0.0,0.0881,1.0825
2025-07-16 15:14:24.898264,190,3115.5,0.0,0.0883,1.0825
2025-07-16 15:14:24.998264,190,2722.3,-0.0031,0.0927,1.0773
2025-07-16 15:14:25.113424,193,2591.2,-0.0034,0.0898,1.0864
2025-07-16 15:14:25.213424,193,3115.5,-0.0012,0.0908,1.0776
2025-07-16 15:14:25.313424,193,3115.5,0.0009,0.0895,1.0825
2025-07-16 15:14:27.990592,222,2853.3,0.0019,0.0861,1.0803
2025-07-16 15:14:28.090592,222,2591.2,0.0002,0.0905,1.0808
2025-07-16 15:14:28.190592,222,2722.3,0.0012,0.0954,1.0859
2025-07-16 15:14:28.508616,227,2591.2,0.0007,0.0856,1.0805
2025-07-16 15:14:28.608616,227,2591.2,-0.0004,0.0888,1.0773
2025-07-16 15:14:28.708616,227,2722.3,0.0024,0.0869,1.082
2025-07-16 15:14:29.417403,236,2984.4,-0.0039,0.0898,1.0839
2025-07-16 15:14:29.517403,236,2984.4,-0.0004,0.0915,1.0825
2025-07-16 15:14:29.617403,236,2984.4,-0.0026,0.0905,1.0771
2025-07-16 15:14:29.991803,242,-3176.0,-0.0048,0.092,1.0827
2025-07-16 15:14:30.091803,242,-3176.0,-0.0002,0.0935,1.0783
2025-07-16 15:14:30.191803,242,3115.5,-0.0014,0.092,1.0803
2025-07-16 15:14:30.892849,251,3115.5,-0.0085,0.0878,1.0837
2025-07-16 15:14:30.992849,251,2984.4,-0.0024,0.0925,1.0747
2025-07-16 15:14:31.092849,251,3246.5,-0.0024,0.0908,1.0805
2025-07-16 15:14:31.290819,255,-3176.0,-0.0024,0.0954,1.0881
2025-07-16 15:14:31.390819,255,-2913.8,-0.0041,0.0927,1.0766
2025-07-16 15:14:31.490819,255,-2913.8,0.0004,0.0886,1.0817
2025-07-16 15:14:31.591748,2,3246.5,0.0012,0.0905,1.0825
2025-07-16 15:14:31.691748,2,2984.4,-0.0041,0.0952,1.081
2025-07-16 15:14:31.791748,2,-3176.0,-0.0031,0.0893,1.0803
2025-07-16 15:14:31.908605,4,-3044.9,-0.0573,0.1096,1.0622
2025-07-16 15:14:32.008605,4,-3176.0,0.07,0.1159,1.1386
2025-07-16 15:14:32.089214,5,-2913.8,-0.0346,0.1064,1.1
2025-07-16 15:14:32.399749,8,3246.5,0.0373,0.1071,1.1083
2025-07-16 15:14:32.499749,8,3115.5,-0.0161,0.1071,1.0695
2025-07-16 15:14:32.599749,8,2853.3,0.0014,0.0979,1.1027
2025-07-16 15:14:36.327890,49,2984.4,0.0007,0.1098,1.0773
2025-07-16 15:14:36.427890,49,-3044.9,0.0009,0.1003,1.0678
2025-07-16 15:14:36.527890,49,-2782.8,0.0017,0.1062,1.0886
2025-07-16 15:14:37.792068,64,3115.5,-0.0109,0.0695,1.0915
2025-07-16 15:14:37.892068,64,3246.5,0.019,0.0759,1.0725
2025-07-16 15:14:37.992068,64,3246.5,-0.0073,0.0629,1.0891
2025-07-16 15:14:38.490704,71,-3176.0,-0.0039,0.0727,1.0832
2025-07-16 15:14:38.590704,71,2984.4,-0.0078,0.0747,1.1013
2025-07-16 15:14:38.690704,71,3115.5,0.0012,0.0742,1.08
2025-07-16 15:14:39.390550,80,-3044.9,-0.0075,0.0722,1.0859
2025-07-16 15:14:39.490550,80,-3176.0,-0.0095,0.0715,1.0756
2025-07-16 15:14:39.590550,80,-3044.9,-0.0053,0.0747,1.0822
2025-07-16 15:14:39.989807,86,-2651.7,-0.0019,0.0708,1.0864
2025-07-16 15:14:40.089807,86,-2913.8,-0.0073,0.0754,1.0852
2025-07-16 15:14:40.189807,86,-3176.0,-0.0046,0.0683,1.0849
2025-07-16 15:14:40.492441,91,-3176.0,-0.0031,0.0722,1.0913
2025-07-16 15:14:40.592441,91,-2913.8,-0.0019,0.0725,1.0854
2025-07-16 15:14:40.692441,91,-2913.8,-0.0051,0.0742,1.0815
2025-07-16 15:14:40.792160,92,3246.5,-0.0056,0.0737,1.0788
2025-07-16 15:14:44.490751,131,-3044.9,-0.009,0.0952,1.0686
2025-07-16 15:14:44.590751,131,-3044.9,-0.0292,0.0959,1.0761
2025-07-16 15:14:44.690751,131,-2913.8,0.0034,0.1147,1.0815
2025-07-16 15:14:44.807624,133,-2651.7,-0.0019,0.1035,1.0817
2025-07-16 15:14:44.907624,133,-2913.8,-0.0122,0.0937,1.092
2025-07-16 15:14:44.992115,134,-3176.0,-0.0102,0.0886,1.081
2025-07-16 15:14:45.692439,143,-3176.0,-0.0041,0.0842,1.0798
2025-07-16 15:14:45.792439,143,-2782.8,-0.0078,0.0815,1.0747
2025-07-16 15:14:45.892439,143,-2651.7,-0.0024,0.0815,1.0803
2025-07-16 15:14:46.492670,151,-3176.0,-0.0014,0.0832,1.0817
2025-07-16 15:14:46.592670,151,3246.5,-0.0056,0.0861,1.0856
2025-07-16 15:14:46.692670,151,3246.5,-0.0043,0.0825,1.0849
2025-07-16 15:14:48.292157,169,-2782.8,-0.0019,0.0837,1.0786
2025-07-16 15:14:48.392157,169,-2651.7,-0.0063,0.0852,1.0773
2025-07-16 15:14:48.492157,169,-3044.9,-0.0021,0.0844,1.0786
2025-07-16 15:14:51.892434,205,-2913.8,-0.01,0.0822,1.0812
2025-07-16 15:14:51.992434,205,-3176.0,-0.0061,0.0852,1.0805
2025-07-16 15:14:52.092434,205,-3044.9,-0.0075,0.0812,1.081
2025-07-16 15:14:52.192434,206,-2782.8,-0.0051,0.0837,1.0844
2025-07-16 15:14:53.089952,217,-3176.0,-0.0083,0.0859,1.0812
2025-07-16 15:14:53.189952,217,-3044.9,-0.0019,0.0822,1.0761
2025-07-16 15:14:53.289952,217,-3044.9,-0.0061,0.0837,1.0803
2025-07-16 15:14:56.818491,254,-2913.8,-0.0058,0.0783,1.0756
2025-07-16 15:14:56.918491,254,-3176.0,-0.0046,0.0815,1.0854
2025-07-16 15:14:57.018491,254,-3176.0,-0.0014,0.0837,1.0769
2025-07-16 15:14:57.904369,9,3246.5,-0.0014,0.083,1.083
2025-07-16 15:14:58.004369,9,-3176.0,-0.0024,0.0827,1.0783
2025-07-16 15:14:58.104369,9,3246.5,-0.0039,0.0844,1.0871
2025-07-16 15:14:58.292336,13,-2913.8,-0.0048,0.0859,1.0834
2025-07-16 15:14:58.392336,13,-3044.9,-0.0034,0.0839,1.0759
2025-07-16 15:14:58.492336,13,3246.5,-0.0004,0.0852,1.0803
2025-07-16 15:14:58.992100,20,3246.5,-0.0039,0.0808,1.0854
2025-07-16 15:14:59.092100,20,3246.5,-0.0075,0.0793,1.083
2025-07-16 15:14:59.192100,20,3115.5,-0.0056,0.08,1.0786
2025-07-16 15:14:59.589443,26,3115.5,-0.0039,0.0812,1.0737
2025-07-16 15:14:59.689443,26,2984.4,-0.0031,0.081,1.0832
2025-07-16 15:14:59.789443,26,3115.5,0.0021,0.0834,1.0812
2025-07-16 15:15:03.192244,62,3246.5,-0.0043,0.0861,1.082
2025-07-16 15:15:03.292244,62,3246.5,-0.0058,0.0834,1.082
2025-07-16 15:15:03.392244,62,-3176.0,-0.0048,0.082,1.0856
2025-07-16 15:15:03.492087,64,-2782.8,-0.0083,0.0827,1.0832
2025-07-16 15:15:03.592087,64,3246.5,-0.0034,0.082,1.0849
2025-07-16 15:15:04.992242,80,2984.4,-0.0065,0.082,1.08
2025-07-16 15:15:05.092242,80,2984.4,-0.0051,0.0861,1.0756
2025-07-16 15:15:05.192242,80,-2913.8,-0.0024,0.0849,1.0771
2025-07-16 15:15:09.692136,127,-3044.9,-0.0058,0.0837,1.0786
2025-07-16 15:15:09.792136,127,-3044.9,-0.0085,0.0837,1.082
2025-07-16 15:15:09.892136,127,-2913.8,-0.0019,0.0866,1.0786
2025-07-16 15:15:13.893070,169,-2782.8,0.0002,0.0844,1.0764
2025-07-16 15:15:13.993070,169,-2782.8,-0.0041,0.0815,1.0859
2025-07-16 15:15:14.093070,169,-2651.7,-0.0026,0.0834,1.0791
2025-07-16 15:15:17.824425,208,-2782.8,-0.0024,0.0849,1.08
2025-07-16 15:15:17.924425,208,-2913.8,-0.0048,0.0844,1.0844
2025-07-16 15:15:18.024425,208,-3176.0,-0.0078,0.0832,1.0773
2025-07-16 15:15:21.992012,250,3115.5,-0.0048,0.0825,1.0854
2025-07-16 15:15:22.092012,250,3246.5,-0.0056,0.083,1.0861
2025-07-16 15:15:22.192012,250,3246.5,-0.0043,0.0805,1.082
2025-07-16 15:15:23.683919,9,-3176.0,-0.0048,0.0842,1.0756
2025-07-16 15:15:23.783919,9,2984.4,-0.0039,0.0834,1.0771
2025-07-16 15:15:23.883919,9,3115.5,-0.0061,0.0812,1.0844
2025-07-16 15:15:24.015912,14,-3176.0,-0.0036,0.0798,1.0805
2025-07-16 15:15:24.115912,14,-3044.9,-0.0056,0.0834,1.0793
2025-07-16 15:15:24.215912,14,-3044.9,-0.0036,0.0825,1.0834
2025-07-16 15:15:24.989250,24,-3176.0,-0.0061,0.0827,1.0805
2025-07-16 15:15:25.089250,24,3246.5,-0.0085,0.0788,1.0798
2025-07-16 15:15:25.189250,24,3246.5,-0.0075,0.0812,1.0825
2025-07-16 15:15:26.689618,41,3246.5,-0.0056,0.0839,1.0837
2025-07-16 15:15:26.789618,41,2722.3,-0.0021,0.0795,1.0815
2025-07-16 15:15:26.889618,41,3115.5,-0.0029,0.0805,1.0915
2025-07-16 15:15:27.689387,51,-3176.0,-0.0024,0.0822,1.0773
2025-07-16 15:15:27.789387,51,-3044.9,-0.0019,0.0808,1.0825
2025-07-16 15:15:27.889387,51,-3176.0,-0.0048,0.0815,1.0744
2025-07-16 15:15:29.725557,71,-2913.8,-0.0043,0.0837,1.083
2025-07-16 15:15:29.825557,71,-2913.8,-0.0051,0.0808,1.0791
2025-07-16 15:15:29.925557,71,-2913.8,-0.0036,0.0849,1.0681
2025-07-16 15:15:31.789527,92,-3044.9,-0.0058,0.0827,1.082
2025-07-16 15:15:31.889527,92,-3176.0,-0.0053,0.0856,1.0808
2025-07-16 15:15:31.989527,92,-3044.9,-0.0043,0.0808,1.0761
2025-07-16 15:15:32.089509,93,-2913.8,-0.008,0.0786,1.0781
2025-07-16 15:15:32.689740,101,-2913.8,-0.0053,0.0864,1.0781
2025-07-16 15:15:32.789740,101,-3044.9,-0.0061,0.0864,1.0812
2025-07-16 15:15:32.889740,101,-3044.9,0.0002,0.0866,1.0859
2025-07-16 15:15:33.416847,108,-3176.0,-0.0014,0.0825,1.0844
2025-07-16 15:15:33.516847,108,-2913.8,-0.0073,0.0812,1.0773
2025-07-16 15:15:33.616847,108,-2782.8,-0.0051,0.08,1.0869
2025-07-16 15:15:34.292903,117,-2651.7,0.0061,0.0881,1.0915
2025-07-16 15:15:34.392903,117,-2782.8,-0.0078,0.0861,1.0737
2025-07-16 15:15:34.492903,117,-2782.8,-0.0043,0.0832,1.1376
2025-07-16 15:15:34.589332,119,-3044.9,0.0004,0.0812,1.0827
2025-07-16 15:15:34.689332,119,-3176.0,0.0041,0.08,1.0849
2025-07-16 15:15:35.992685,132,-2520.6,-0.0053,0.0771,1.091
2025-07-16 15:15:36.092685,132,-2520.6,-0.0029,0.0854,1.0759
2025-07-16 15:15:36.192685,132,-2782.8,-0.0014,0.0842,1.0881
2025-07-16 15:15:37.189683,146,-2913.8,-0.0085,0.0808,1.0793
2025-07-16 15:15:37.289683,146,-2651.7,-0.0024,0.0825,1.0854
2025-07-16 15:15:37.389683,146,-2651.7,-0.0046,0.0849,1.0832
2025-07-16 15:15:38.491719,159,-2520.6,-0.0061,0.0786,1.0888
2025-07-16 15:15:38.591719,159,-2389.6,-0.0053,0.0856,1.0864
2025-07-16 15:15:38.691719,159,-2782.8,-0.0029,0.0798,1.0783
2025-07-16 15:15:39.920313,171,3246.5,-0.0056,0.082,1.0734
2025-07-16 15:15:40.020313,171,-2913.8,-0.0017,0.0795,1.0913
2025-07-16 15:15:40.120313,171,-2782.8,-0.0075,0.0837,1.0744
2025-07-16 15:15:40.906642,183,-2520.6,-0.0004,0.0776,1.0849
2025-07-16 15:15:41.006642,183,-2651.7,-0.0063,0.0849,1.0856
2025-07-16 15:15:41.106642,183,-2520.6,-0.0083,0.0842,1.0783
2025-07-16 15:15:41.204297,185,-2913.8,-0.0007,0.0822,1.0795
2025-07-16 15:15:41.304297,185,3115.5,-0.0043,0.0825,1.0852
2025-07-16 15:15:42.691515,201,-3044.9,-0.0048,0.0783,1.0871
2025-07-16 15:15:42.791515,201,-3044.9,-0.0065,0.0825,1.0791
2025-07-16 15:15:42.891515,201,-3044.9,-0.0043,0.081,1.0788
2025-07-16 15:15:44.189623,216,-3044.9,-0.0056,0.0859,1.0886
2025-07-16 15:15:44.289623,216,-3176.0,-0.0056,0.0866,1.0766
2025-07-16 15:15:44.389623,216,-2782.8,-0.0051,0.0788,1.0952
2025-07-16 15:15:44.990197,224,-2913.8,-0.0034,0.08,1.0837
2025-07-16 15:15:45.090197,224,-3044.9,-0.0051,0.0715,1.0856
2025-07-16 15:15:45.190197,224,3246.5,0.0009,0.0805,1.1071
2025-07-16 15:15:48.002644,254,-2651.7,-0.007,0.0834,1.083
2025-07-16 15:15:48.102644,254,-2782.8,-0.0051,0.0874,1.0776
2025-07-16 15:15:48.202644,254,-2782.8,-0.0031,0.0808,1.0703
2025-07-16 15:15:48.290864,255,-2782.8,-0.0058,0.0842,1.0834
2025-07-16 15:15:48.791223,6,-2651.7,0.0,0.083,1.0791
2025-07-16 15:15:48.891223,6,-2651.7,-0.0068,0.0856,1.07
2025-07-16 15:15:48.991223,6,-3176.0,-0.0036,0.0844,1.0803
2025-07-16 15:15:49.590971,14,-2782.8,0.0012,0.0832,1.0783
2025-07-16 15:15:49.690971,14,-2782.8,-0.0036,0.083,1.0776
2025-07-16 15:15:49.790971,14,-2913.8,-0.0002,0.0808,1.0783
2025-07-16 15:15:49.892280,17,-2782.8,-0.0041,0.0805,1.08
2025-07-16 15:15:49.992280,17,-2520.6,-0.0031,0.081,1.0642
2025-07-16 15:15:50.092280,17,-2520.6,-0.0041,0.0788,1.0966
2025-07-16 15:15:50.590958,24,-3044.9,-0.0061,0.0886,1.072
2025-07-16 15:15:50.690958,24,-2913.8,-0.0046,0.0791,1.0927
2025-07-16 15:15:50.790958,24,-2913.8,-0.0043,0.0832,1.083
2025-07-16 15:15:51.491181,33,-3044.9,-0.0056,0.082,1.0834
2025-07-16 15:15:51.591181,33,-3176.0,-0.0061,0.0808,1.0812
2025-07-16 15:15:51.691181,33,-3044.9,-0.0058,0.0839,1.08
2025-07-16 15:15:51.791239,35,-3044.9,-0.0029,0.0832,1.0812
2025-07-16 15:15:51.891239,35,-3176.0,-0.0039,0.0832,1.0812
2025-07-16 15:15:52.899969,47,3115.5,-0.0043,0.0834,1.0795
2025-07-16 15:15:52.999969,47,-3044.9,-0.0046,0.083,1.0844
2025-07-16 15:15:53.099969,47,-2782.8,-0.0051,0.0844,1.0734
2025-07-16 15:15:55.507980,73,-2913.8,-0.0046,0.0822,1.0869
2025-07-16 15:15:55.607980,73,-2913.8,-0.0041,0.0827,1.0856
2025-07-16 15:15:55.707980,73,-2782.8,-0.0017,0.0808,1.0874
2025-07-16 15:15:56.400935,82,-2520.6,-0.0078,0.0839,1.0742
2025-07-16 15:15:56.500935,82,-2782.8,-0.0063,0.0771,1.0869
2025-07-16 15:15:56.600935,82,-2913.8,-0.0068,0.0815,1.0729
2025-07-16 15:15:57.294808,89,-2258.5,-0.0009,0.082,1.0703
2025-07-16 15:15:57.394808,89,-2389.6,-0.0046,0.0844,1.0812
2025-07-16 15:15:57.494808,89,-2389.6,-0.0068,0.0825,1.0805
2025-07-16 15:15:59.125639,109,-2782.8,-0.0053,0.082,1.0981
2025-07-16 15:15:59.225639,109,-2651.7,-0.0073,0.0834,1.0805
2025-07-16 15:15:59.325639,109,-2913.8,-0.009,0.0827,1.083
2025-07-16 15:15:59.492484,113,-2913.8,-0.0046,0.0834,1.0761
2025-07-16 15:15:59.592484,113,-2651.7,-0.0017,0.0832,1.0834
2025-07-16 15:15:59.692484,113,-2520.6,-0.0034,0.0808,1.0776
2025-07-16 15:16:07.183492,190,-3176.0,-0.0056,0.0874,1.0703
2025-07-16 15:16:07.283492,190,3246.5,-0.0046,0.0808,1.0842
2025-07-16 15:16:07.383492,190,3115.5,-0.0012,0.0786,1.0954
2025-07-16 15:16:09.882249,217,-3044.9,-0.0034,0.083,1.08
2025-07-16 15:16:09.982249,217,-2782.8,0.0002,0.0766,1.091
2025-07-16 15:16:10.082249,217,-3044.9,-0.0085,0.0825,1.0925
2025-07-16 15:16:11.782773,236,-2782.8,-0.0046,0.0834,1.0749
2025-07-16 15:16:11.882773,236,-2913.8,-0.0051,0.0805,1.0935
2025-07-16 15:16:11.982773,236,-3044.9,-0.0085,0.0786,1.0871
2025-07-16 15:16:12.380835,242,-2389.6,-0.0051,0.0842,1.0866
2025-07-16 15:16:12.480835,242,-2389.6,-0.0039,0.082,1.0783
2025-07-16 15:16:12.580835,242,-2913.8,-0.01,0.0827,1.0859
2025-07-16 15:16:13.181028,250,-2913.8,-0.0024,0.0817,1.0878
2025-07-16 15:16:13.281028,250,-2782.8,-0.0034,0.0832,1.0827
2025-07-16 15:16:13.381028,250,-2782.8,-0.0004,0.082,1.0812
2025-07-16 15:16:14.979178,12,-3044.9,-0.0058,0.0842,1.083
2025-07-16 15:16:15.079178,12,-2913.8,-0.0046,0.0869,1.0893
2025-07-16 15:16:15.179178,12,-3044.9,-0.0056,0.0834,1.0793
2025-07-16 15:16:16.517325,27,3246.5,-0.0034,0.0812,1.0876
2025-07-16 15:16:16.617325,27,2984.4,-0.009,0.0812,1.0761
2025-07-16 15:16:16.717325,27,3246.5,-0.0046,0.0837,1.0812
2025-07-16 15:16:23.977146,102,-2913.8,-0.0061,0.0847,1.0874
2025-07-16 15:16:24.077146,102,-2913.8,-0.0031,0.0837,1.0815
2025-07-16 15:16:24.177146,102,-2913.8,-0.0029,0.0776,1.0866
2025-07-16 15:16:24.678899,109,-3044.9,-0.0068,0.08,1.0842
2025-07-16 15:16:24.778899,109,3246.5,-0.0017,0.0852,1.071
2025-07-16 15:16:24.878899,109,3246.5,-0.0004,0.0815,1.0878
2025-07-16 15:16:25.482642,115,-3176.0,-0.0061,0.0837,1.0759
2025-07-16 15:16:25.582642,115,-2913.8,-0.0051,0.0834,1.0842
2025-07-16 15:16:25.682642,115,-3044.9,-0.0009,0.0815,1.0847
2025-07-16 15:16:29.475463,157,-2913.8,-0.0004,0.0859,1.08
2025-07-16 15:16:29.575463,157,3246.5,-0.0031,0.081,1.0791
2025-07-16 15:16:29.675463,157,3246.5,-0.0056,0.082,1.0856
2025-07-16 15:16:30.078611,163,-2782.8,-0.0024,0.0808,1.0847
2025-07-16 15:16:30.178611,163,-2782.8,-0.0031,0.0795,1.0781
2025-07-16 15:16:30.278611,163,-2913.8,-0.0031,0.0815,1.0864
2025-07-16 15:16:30.375359,165,-3044.9,-0.0031,0.0839,1.0747
2025-07-16 15:16:30.475359,165,-2782.8,-0.0065,0.0803,1.0766
2025-07-16 15:16:31.075311,173,-2782.8,-0.0085,0.0803,1.0812
2025-07-16 15:16:31.175311,173,-2782.8,-0.0024,0.0793,1.0791
2025-07-16 15:16:31.275311,173,3246.5,-0.008,0.0844,1.0844
2025-07-16 15:16:31.901639,181,-2520.6,-0.0048,0.08,1.0793
2025-07-16 15:16:32.001639,181,-2520.6,-0.0048,0.0803,1.08
2025-07-16 15:16:32.101639,181,-2258.5,-0.008,0.0827,1.0849
2025-07-16 15:16:32.976401,192,-2782.8,-0.0046,0.0822,1.082
2025-07-16 15:16:33.076401,192,-2782.8,-0.0041,0.0825,1.0878
2025-07-16 15:16:33.176401,192,-2913.8,-0.0043,0.083,1.0808
2025-07-16 15:16:33.574939,198,-2913.8,-0.0058,0.0798,1.0893
2025-07-16 15:16:33.674939,198,-2782.8,-0.0021,0.0844,1.0842
2025-07-16 15:16:33.774939,198,-2258.5,-0.0063,0.0854,1.0795
2025-07-16 15:16:33.875055,199,-1996.3,-0.0043,0.0805,1.081
2025-07-16 15:16:34.776100,210,-2782.8,-0.008,0.0825,1.0837
2025-07-16 15:16:34.876100,210,-2651.7,-0.0061,0.082,1.083
2025-07-16 15:16:34.976100,210,-3044.9,-0.0046,0.0791,1.0866
2025-07-16 15:16:35.475560,217,-2651.7,-0.0004,0.0825,1.0822
2025-07-16 15:16:35.575560,217,-2651.7,-0.0039,0.0847,1.0773
2025-07-16 15:16:35.675560,217,-2520.6,-0.008,0.0827,1.0812
2025-07-16 15:16:36.077207,223,-2782.8,-0.0048,0.0837,1.0793
2025-07-16 15:16:36.177207,223,-2520.6,-0.0043,0.08,1.0825
2025-07-16 15:16:36.277207,223,-2651.7,-0.0029,0.082,1.0747
2025-07-16 15:16:37.174512,234,-2651.7,-0.0048,0.081,1.0808
2025-07-16 15:16:37.274512,234,-2520.6,-0.0048,0.0817,1.0803
2025-07-16 15:16:37.374512,234,-2782.8,-0.0053,0.0791,1.0776
2025-07-16 15:16:38.174362,244,-2651.7,-0.0063,0.0839,1.0849
2025-07-16 15:16:38.274362,244,-2520.6,-0.0017,0.0798,1.0861
2025-07-16 15:16:38.374362,244,-2782.8,-0.0056,0.0788,1.083
2025-07-16 15:16:39.074528,253,-2913.8,-0.0068,0.0837,1.0773
2025-07-16 15:16:39.174528,253,-2520.6,-0.0058,0.0832,1.0844
2025-07-16 15:16:39.274528,253,-2651.7,-0.0039,0.0805,1.0798
2025-07-16 15:16:39.400400,0,-2520.6,-0.0083,0.083,1.0878
2025-07-16 15:16:39.500400,0,-2651.7,-0.0029,0.08,1.0781
2025-07-16 15:16:39.600400,0,-2389.6,-0.009,0.0827,1.082
2025-07-16 15:16:39.677003,3,-2520.6,-0.0024,0.0827,1.0866
2025-07-16 15:16:39.777003,3,-2782.8,-0.0058,0.0827,1.0771
2025-07-16 15:16:39.877003,3,-2651.7,-0.0083,0.0788,1.0834
2025-07-16 15:16:39.974674,6,-2782.8,-0.0063,0.082,1.0827
2025-07-16 15:16:40.074674,6,-3044.9,-0.0051,0.0781,1.0812
2025-07-16 15:16:40.174674,6,-3044.9,-0.0046,0.0839,1.0815
2025-07-16 15:16:40.774813,14,-3176.0,-0.0041,0.0832,1.0795
2025-07-16 15:16:40.874813,14,3246.5,-0.007,0.0817,1.0834
2025-07-16 15:16:40.974813,14,-2782.8,-0.0061,0.08,1.0812
2025-07-16 15:16:41.075604,17,-2651.7,-0.0051,0.0766,1.0869
2025-07-16 15:16:41.175604,17,-2913.8,-0.0065,0.0847,1.0808
2025-07-16 15:16:41.275604,17,-2782.8,-0.0039,0.082,1.0773
2025-07-16 15:16:42.274424,29,-2782.8,-0.0017,0.0798,1.0869
2025-07-16 15:16:42.374424,29,-2651.7,-0.0053,0.0805,1.0805
2025-07-16 15:16:42.474424,29,-2913.8,-0.0065,0.081,1.0869
2025-07-16 15:16:43.173567,36,-2651.7,-0.0031,0.0795,1.0788
2025-07-16 15:16:43.273567,36,-2651.7,-0.0021,0.0825,1.0834
2025-07-16 15:16:43.373567,36,-2651.7,-0.0031,0.0793,1.0815
2025-07-16 15:16:43.274228,38,-2782.8,-0.0002,0.082,1.0834
2025-07-16 15:16:43.374228,38,-2913.8,-0.0034,0.0842,1.0734
2025-07-16 15:16:43.474262,39,-2913.8,-0.0039,0.0815,1.0827
2025-07-16 15:16:43.876766,45,-2913.8,-0.0034,0.0844,1.0847
2025-07-16 15:16:43.976766,45,-2520.6,-0.0031,0.0825,1.0798
2025-07-16 15:16:44.076766,45,-2127.4,-0.0053,0.0791,1.0834
2025-07-16 15:16:44.198502,47,-2389.6,-0.0063,0.0842,1.0793
2025-07-16 15:16:44.298502,47,-2651.7,-0.0014,0.0795,1.072
2025-07-16 15:16:44.376562,50,-2651.7,-0.0073,0.08,1.0869
2025-07-16 15:16:44.476562,50,-2782.8,-0.0092,0.0827,1.0837
2025-07-16 15:16:44.576562,50,-2520.6,-0.0036,0.0827,1.0795
2025-07-16 15:16:44.982300,56,-2782.8,-0.0053,0.0812,1.0852
2025-07-16 15:16:45.082300,56,-2389.6,-0.0043,0.0793,1.0869
2025-07-16 15:16:45.182300,56,-2520.6,-0.0036,0.0798,1.0764
2025-07-16 15:16:46.874234,75,-2913.8,-0.0065,0.0822,1.081
2025-07-16 15:16:46.974234,75,-2520.6,-0.0075,0.0795,1.0834
2025-07-16 15:16:47.074234,75,-2520.6,-0.0039,0.0815,1.0788
2025-07-16 15:16:47.793110,84,-2782.8,-0.0078,0.081,1.0795
2025-07-16 15:16:47.893110,84,-3044.9,-0.0024,0.0795,1.0864
2025-07-16 15:16:47.993110,84,-3044.9,-0.0034,0.083,1.0759
2025-07-16 15:16:48.288283,89,-2782.8,-0.0012,0.0825,1.0791
2025-07-16 15:16:48.388283,89,-2913.8,-0.0095,0.0812,1.0847
2025-07-16 15:16:48.488283,89,-2782.8,-0.0053,0.0832,1.0793
2025-07-16 15:16:49.191550,98,-3176.0,-0.0078,0.0847,1.0812
2025-07-16 15:16:49.291550,98,-2651.7,-0.0017,0.0798,1.0805
2025-07-16 15:16:49.391550,98,-2651.7,-0.0048,0.0791,1.08
2025-07-16 15:16:49.683276,99,-3044.9,-0.0053,0.0825,1.0881
2025-07-16 15:16:50.176516,108,3246.5,-0.0039,0.0817,1.0854
2025-07-16 15:16:50.276516,108,-2782.8,-0.0034,0.0788,1.0849
2025-07-16 15:16:50.376516,108,-2913.8,-0.0048,0.0812,1.0788
2025-07-16 15:16:50.473823,111,-3176.0,-0.0041,0.0812,1.0805
2025-07-16 15:16:50.573823,111,-2913.8,-0.0041,0.0825,1.0849
2025-07-16 15:16:50.673823,111,-3176.0,-0.0056,0.0803,1.0778
2025-07-16 15:16:52.825282,134,-2913.8,-0.0026,0.0798,1.0786
2025-07-16 15:16:52.925282,134,-2913.8,-0.0024,0.083,1.0837
2025-07-16 15:16:53.025282,134,-2913.8,-0.0063,0.0837,1.0849
2025-07-16 15:16:53.375193,140,-2651.7,-0.0068,0.0825,1.0783
2025-07-16 15:16:53.475193,140,-3044.9,-0.0075,0.082,1.082
2025-07-16 15:16:53.575193,140,3115.5,-0.008,0.08,1.0859
2025-07-16 15:16:54.588330,152,-2258.5,-0.0029,0.0822,1.0864
2025-07-16 15:16:54.688330,152,-2258.5,-0.0048,0.0817,1.0856
2025-07-16 15:16:54.788330,152,-2389.6,-0.0026,0.0825,1.081
2025-07-16 15:16:55.275327,159,-3044.9,-0.0092,0.0793,1.0812
2025-07-16 15:16:55.375327,159,-2913.8,-0.0036,0.0817,1.0815
2025-07-16 15:16:55.475327,159,-3176.0,-0.0039,0.0786,1.0812
2025-07-16 15:16:56.118776,167,-2913.8,-0.0056,0.0849,1.0834
2025-07-16 15:16:56.218776,167,-2782.8,-0.007,0.083,1.0803
2025-07-16 15:16:56.318776,167,-2782.8,-0.0078,0.0834,1.0783
2025-07-16 15:16:56.700669,173,-3044.9,-0.0065,0.0815,1.0834
2025-07-16 15:16:56.800669,173,-3044.9,-0.0053,0.0805,1.0837
2025-07-16 15:16:56.900669,173,-3044.9,-0.0014,0.0834,1.0861
2025-07-16 15:17:00.775218,214,-2651.7,-0.0041,0.0861,1.0798
2025-07-16 15:17:00.875218,214,-2520.6,-0.0034,0.0827,1.0842
2025-07-16 15:17:00.975218,214,-2651.7,-0.0092,0.0849,1.0822
2025-07-16 15:17:03.676294,243,-2651.7,-0.0029,0.0832,1.0778
2025-07-16 15:17:03.776294,243,-2913.8,-0.0065,0.0832,1.0842
2025-07-16 15:17:03.876294,243,3246.5,-0.0024,0.0832,1.0852
2025-07-16 15:17:04.576155,252,-3176.0,-0.0095,0.0834,1.0861
2025-07-16 15:17:04.676155,252,-2913.8,-0.0085,0.0832,1.0864
2025-07-16 15:17:04.776155,252,-2782.8,-0.0036,0.0852,1.0793
2025-07-16 15:17:12.102873,71,-2913.8,-0.0083,0.0761,1.0834
2025-07-16 15:17:12.202873,71,-2389.6,-0.0046,0.0808,1.0864
2025-07-16 15:17:12.302873,71,-2258.5,-0.0014,0.0808,1.0859
2025-07-16 15:17:12.399659,73,-2520.6,-0.0058,0.0859,1.0781
2025-07-16 15:17:12.499659,73,-2782.8,-0.0046,0.0871,1.0825
2025-07-16 15:17:20.773421,158,-2913.8,-0.0087,0.0808,1.083
2025-07-16 15:17:20.873421,158,-2782.8,-0.0039,0.0815,1.0837
2025-07-16 15:17:20.973421,158,-2782.8,-0.0061,0.0852,1.0786
2025-07-16 15:17:21.287996,163,-3176.0,-0.0063,0.0839,1.0834
2025-07-16 15:17:21.387996,163,-2913.8,-0.0043,0.0825,1.0798
2025-07-16 15:17:21.487996,163,-2782.8,-0.0031,0.0827,1.0852
2025-07-16 15:17:23.073490,181,-2913.8,-0.007,0.0805,1.0788
2025-07-16 15:17:23.173490,181,-2782.8,-0.0073,0.0844,1.081
2025-07-16 15:17:23.273490,181,-3044.9,-0.0068,0.0864,1.0808
2025-07-16 15:17:24.973112,200,-3176.0,-0.0046,0.0861,1.0751
2025-07-16 15:17:25.073112,200,-3176.0,-0.0046,0.0776,1.0864
2025-07-16 15:17:25.173112,200,-3176.0,-0.0048,0.0808,1.0791
2025-07-16 15:17:25.302283,202,3246.5,-0.0046,0.0793,1.0786
2025-07-16 15:17:25.402283,202,3246.5,-0.0043,0.0798,1.0827
2025-07-16 15:17:28.573155,236,-3044.9,-0.0048,0.0876,1.0837
2025-07-16 15:17:28.673155,236,-3044.9,-0.0048,0.0834,1.0822
2025-07-16 15:17:28.773155,236,-3044.9,-0.0053,0.0837,1.081
2025-07-16 15:17:29.706297,247,-2782.8,-0.0068,0.0837,1.0878
2025-07-16 15:17:29.806297,247,-2651.7,-0.0061,0.081,1.0825
2025-07-16 15:17:29.906297,247,-2782.8,-0.0053,0.0832,1.0791
2025-07-16 15:17:32.368153,16,-3044.9,-0.0056,0.0817,1.0827
2025-07-16 15:17:32.468153,16,-3044.9,-0.0036,0.0812,1.0854
2025-07-16 15:17:32.568153,16,-2782.8,-0.0068,0.0827,1.0859
2025-07-16 15:17:32.974529,24,-2520.6,-0.0058,0.0832,1.0859
2025-07-16 15:17:33.074529,24,-2651.7,-0.0085,0.0834,1.0769
2025-07-16 15:17:33.174529,24,-2651.7,-0.0009,0.0864,1.0754
2025-07-16 15:17:35.975734,54,-2913.8,-0.0068,0.0822,1.081
2025-07-16 15:17:36.075734,54,-2913.8,-0.0046,0.0803,1.0812
2025-07-16 15:17:36.175734,54,-2913.8,-0.0029,0.0832,1.0786
2025-07-16 15:17:36.391894,58,-2913.8,-0.0041,0.0834,1.0866
2025-07-16 15:17:36.491894,58,-3044.9,-0.0031,0.081,1.0798
2025-07-16 15:17:36.591894,58,-2782.8,-0.0039,0.0852,1.0864
2025-07-16 15:17:36.868790,61,-2913.8,-0.0009,0.0837,1.081
2025-07-16 15:17:36.968790,61,-2782.8,-0.0048,0.0822,1.0822
2025-07-16 15:17:37.068790,61,-2782.8,-0.0068,0.0817,1.0834
2025-07-16 15:17:36.987429,63,-3176.0,-0.0063,0.0827,1.0849
2025-07-16 15:17:37.087429,63,3246.5,-0.0041,0.082,1.0793
2025-07-16 15:17:37.173749,66,-3044.9,-0.0029,0.0803,1.0812
2025-07-16 15:17:37.273749,66,-2782.8,-0.0031,0.0764,1.0825
2025-07-16 15:17:37.373749,66,-3176.0,-0.0034,0.0798,1.0795
2025-07-16 15:17:39.086002,85,-3044.9,-0.0034,0.0844,1.0827
2025-07-16 15:17:39.186002,85,-2913.8,-0.0109,0.0822,1.0827
2025-07-16 15:17:39.286002,85,-2782.8,-0.0048,0.0822,1.0881
2025-07-16 15:17:43.574868,130,-3176.0,-0.0109,0.082,1.081
2025-07-16 15:17:43.674868,130,-2782.8,-0.0063,0.0859,1.0795
2025-07-16 15:17:43.774868,130,-2782.8,-0.0039,0.0791,1.0854
2025-07-16 15:17:43.876878,132,-2913.8,-0.0046,0.0825,1.0783
2025-07-16 15:17:43.976878,132,-2913.8,-0.0031,0.0812,1.0878
2025-07-16 15:17:44.095553,135,-3176.0,-0.0041,0.0844,1.0859
2025-07-16 15:17:44.195553,135,-3176.0,-0.0024,0.0798,1.0732
2025-07-16 15:17:44.295553,135,-3044.9,-0.0029,0.081,1.0812
2025-07-16 15:17:46.475944,159,-3176.0,-0.0053,0.0849,1.0805
2025-07-16 15:17:46.575944,159,-2913.8,-0.0073,0.0827,1.0859
2025-07-16 15:17:46.675944,159,-3044.9,-0.0058,0.0781,1.0788
2025-07-16 15:17:47.390166,168,-3176.0,-0.0051,0.0822,1.08
2025-07-16 15:17:47.490166,168,-2782.8,-0.0036,0.0837,1.0856
2025-07-16 15:17:47.590166,168,-2651.7,-0.0029,0.0832,1.082
2025-07-16 15:17:47.773463,172,-2782.8,-0.0056,0.08,1.0778
2025-07-16 15:17:47.873463,172,-2913.8,-0.0053,0.0798,1.0812
2025-07-16 15:17:47.973463,172,-2782.8,-0.0046,0.081,1.0759
2025-07-16 15:17:50.373635,198,-2258.5,-0.0063,0.0839,1.0842
2025-07-16 15:17:50.473635,198,-2651.7,-0.0048,0.0827,1.0827
2025-07-16 15:17:50.573635,198,-2913.8,-0.0068,0.0847,1.0832
2025-07-16 15:17:50.774829,202,-2913.8,-0.0031,0.0803,1.0817
2025-07-16 15:17:50.874829,202,-2520.6,-0.0029,0.0812,1.0842
2025-07-16 15:17:50.974829,202,-2258.5,-0.0112,0.083,1.0817
2025-07-16 15:17:51.294184,207,-2651.7,-0.0036,0.0849,1.0812
2025-07-16 15:17:51.394184,207,-2913.8,-0.0056,0.0822,1.0842
2025-07-16 15:17:51.494184,207,-2258.5,-0.0048,0.0847,1.0761
2025-07-16 15:17:51.876957,213,-3044.9,-0.0039,0.0815,1.0781
2025-07-16 15:17:51.976957,213,-3044.9,-0.007,0.081,1.0791
2025-07-16 15:17:52.076957,213,-2913.8,-0.0068,0.081,1.0832
2025-07-16 15:17:52.176527,214,-2913.8,-0.0065,0.0825,1.0874
2025-07-16 15:17:52.475393,219,-2651.7,-0.0056,0.081,1.0764
2025-07-16 15:17:52.575393,219,-2258.5,-0.0058,0.0812,1.083
2025-07-16 15:17:52.675393,219,-2389.6,-0.0087,0.0822,1.0832
2025-07-16 15:17:52.776171,222,-2782.8,-0.0061,0.0825,1.081
2025-07-16 15:17:52.876171,222,-2782.8,-0.0065,0.0798,1.0798
2025-07-16 15:17:52.976171,222,-2520.6,-0.0053,0.08,1.081
2025-07-16 15:17:53.676504,231,-2782.8,-0.0061,0.0815,1.0778
2025-07-16 15:17:53.776504,231,-2651.7,-0.0061,0.0825,1.0856
2025-07-16 15:17:53.876504,231,-2520.6,-0.0068,0.0856,1.08
2025-07-16 15:17:54.609538,240,-2651.7,-0.0068,0.083,1.0844
2025-07-16 15:17:54.709538,240,-2782.8,-0.0041,0.0808,1.0791
2025-07-16 15:17:54.809538,240,-2913.8,-0.0095,0.0803,1.082
2025-07-16 15:17:57.685761,15,-2782.8,-0.007,0.0822,1.0864
2025-07-16 15:17:57.785761,15,-2913.8,-0.0043,0.0822,1.0808
2025-07-16 15:17:57.885761,15,-2913.8,-0.0061,0.0864,1.0849
2025-07-16 15:17:59.173727,30,-3176.0,-0.0061,0.0815,1.0734
2025-07-16 15:17:59.273727,30,-2913.8,-0.0065,0.0778,1.0888
2025-07-16 15:17:59.373727,30,-2520.6,-0.008,0.0817,1.0834
2025-07-16 15:18:00.575976,44,-3176.0,-0.0063,0.0791,1.0815
2025-07-16 15:18:00.675976,44,-3176.0,-0.0068,0.082,1.0847
2025-07-16 15:18:00.775976,44,-2389.6,-0.0012,0.0822,1.0815
2025-07-16 15:18:01.476375,53,3246.5,-0.008,0.0812,1.0847
2025-07-16 15:18:01.576375,53,-3176.0,-0.0058,0.0822,1.0917
2025-07-16 15:18:01.676375,53,-3044.9,-0.0068,0.0847,1.0776
2025-07-16 15:18:04.276596,81,-2913.8,-0.0063,0.0847,1.0866
2025-07-16 15:18:04.376596,81,-2913.8,-0.0075,0.0788,1.0751
2025-07-16 15:18:04.476596,81,-2651.7,-0.0041,0.0825,1.0861
2025-07-16 15:18:04.793977,86,-2913.8,-0.0041,0.081,1.0781
2025-07-16 15:18:04.893977,86,-2782.8,-0.0053,0.0812,1.0795
2025-07-16 15:18:04.993977,86,-3044.9,-0.0041,0.0822,1.0866
2025-07-16 15:18:09.676389,135,-2913.8,-0.007,0.0812,1.0898
2025-07-16 15:18:09.776389,135,-2651.7,-0.0031,0.0803,1.081
2025-07-16 15:18:09.876389,135,-2258.5,-0.0085,0.083,1.0798
2025-07-16 15:18:13.875957,177,-2389.6,-0.0078,0.0808,1.0991
2025-07-16 15:18:13.975957,177,-2520.6,-0.0085,0.0847,1.0866
2025-07-16 15:18:14.075957,177,-2520.6,-0.0029,0.0839,1.0837
2025-07-16 15:18:14.676224,185,-2913.8,-0.0046,0.0808,1.0859
2025-07-16 15:18:14.776224,185,-2651.7,-0.0026,0.0764,1.1105
2025-07-16 15:18:14.876224,185,-2651.7,-0.0058,0.0839,1.0874
2025-07-16 15:18:14.976008,186,-2651.7,-0.0073,0.0825,1.0856
2025-07-16 15:18:15.894369,197,-2127.4,-0.0048,0.082,1.0798
2025-07-16 15:18:15.994369,197,-2520.6,-0.0065,0.083,1.0822
2025-07-16 15:18:16.094369,197,-2782.8,-0.0083,0.0847,1.0825
2025-07-16 15:18:19.176206,230,-2651.7,-0.0065,0.0803,1.0837
2025-07-16 15:18:19.276206,230,-2651.7,-0.0056,0.0861,1.08
2025-07-16 15:18:19.376206,230,-3044.9,-0.0078,0.0822,1.0795
2025-07-16 15:18:19.475864,231,-2651.7,-0.0019,0.0815,1.0874
2025-07-16 15:18:19.573613,233,-2520.6,-0.008,0.0808,1.0832
2025-07-16 15:18:19.673613,233,-2782.8,-0.0078,0.0827,1.0817
2025-07-16 15:18:22.776400,10,-2258.5,-0.0048,0.0881,1.0798
2025-07-16 15:18:22.876400,10,-2127.4,-0.0063,0.0805,1.0737
2025-07-16 15:18:22.976400,10,-2389.6,-0.0056,0.0842,1.0761
2025-07-16 15:18:25.575693,38,-2782.8,-0.0085,0.0815,1.0839
2025-07-16 15:18:25.675693,38,-2651.7,-0.0061,0.08,1.0825
2025-07-16 15:18:25.775693,38,-2651.7,-0.0058,0.0856,1.09
2025-07-16 15:18:27.375620,56,-2913.8,-0.0083,0.0805,1.0871
2025-07-16 15:18:27.475620,56,-2782.8,-0.0053,0.081,1.0817
2025-07-16 15:18:27.575620,56,-2651.7,-0.0104,0.0839,1.0715
2025-07-16 15:18:27.897604,61,-2389.6,-0.0065,0.0808,1.0776
2025-07-16 15:18:27.997604,61,-2651.7,-0.0104,0.0812,1.0805
2025-07-16 15:18:28.275536,65,-2913.8,-0.007,0.0839,1.0693
2025-07-16 15:18:28.375536,65,-2913.8,-0.0014,0.0805,1.0727
2025-07-16 15:18:28.475536,65,-2520.6,-0.0075,0.0805,1.0915
2025-07-16 15:18:29.373053,76,-3044.9,-0.0051,0.0783,1.0788
2025-07-16 15:18:29.473053,76,3246.5,-0.0029,0.081,1.0893
2025-07-16 15:18:29.573053,76,-3044.9,-0.0031,0.0798,1.0886
2025-07-16 15:18:31.170839,93,-3176.0,0.0004,0.0847,1.0944
2025-07-16 15:18:31.270839,93,-2782.8,-0.0024,0.0842,1.0646
2025-07-16 15:18:31.370839,93,-2651.7,-0.0039,0.0791,1.0798
2025-07-16 15:18:31.374408,94,-3044.9,-0.0058,0.0805,1.072
2025-07-16 15:18:32.475457,107,-2913.8,-0.01,0.0822,1.0881
2025-07-16 15:18:32.575457,107,-3176.0,-0.0046,0.0795,1.081
2025-07-16 15:18:32.675457,107,-3044.9,-0.0073,0.0793,1.0837
2025-07-16 15:18:33.287222,115,-3044.9,-0.0021,0.082,1.0759
2025-07-16 15:18:33.387222,115,3246.5,-0.0065,0.0805,1.0849
2025-07-16 15:18:33.487222,115,-3176.0,-0.0065,0.0825,1.0869
2025-07-16 15:18:33.582960,118,-3044.9,0.0014,0.0822,1.0849
2025-07-16 15:18:33.682960,118,-2913.8,-0.0014,0.0852,1.0839
2025-07-16 15:18:33.782960,118,-3044.9,-0.0085,0.0812,1.0812
2025-07-16 15:18:34.775556,130,-2913.8,-0.0065,0.0798,1.0825
2025-07-16 15:18:34.875556,130,-2913.8,-0.0083,0.083,1.0886
2025-07-16 15:18:34.975556,130,-2913.8,-0.0092,0.0815,1.082
2025-07-16 15:18:37.475438,157,-2651.7,-0.0058,0.0817,1.0844
2025-07-16 15:18:37.575438,157,-2782.8,-0.0048,0.0827,1.0886
2025-07-16 15:18:37.675438,157,-2651.7,-0.0051,0.083,1.0842
2025-07-16 15:18:38.973636,170,-2520.6,-0.0021,0.0854,1.0817
2025-07-16 15:18:39.073636,170,-2913.8,-0.0034,0.0859,1.0759
2025-07-16 15:18:39.173636,170,-2782.8,-0.008,0.0776,1.083
2025-07-16 15:18:39.074975,172,-2782.8,-0.0092,0.0832,1.0805
2025-07-16 15:18:39.174975,172,-2913.8,-0.0063,0.0866,1.0864
2025-07-16 15:18:40.175730,184,-2651.7,-0.0046,0.0808,1.0803
2025-07-16 15:18:40.275730,184,-2782.8,-0.0021,0.0815,1.0771
2025-07-16 15:18:40.375730,184,-3044.9,-0.0058,0.0786,1.0876
2025-07-16 15:18:40.774570,190,-2782.8,-0.007,0.0791,1.0852
2025-07-16 15:18:40.874570,190,-2651.7,-0.0063,0.0798,1.081
2025-07-16 15:18:40.974570,190,-2389.6,-0.0024,0.0793,1.0786
2025-07-16 15:18:41.085402,193,-2782.8,-0.0043,0.0827,1.0795
2025-07-16 15:18:41.185402,193,-2782.8,-0.0056,0.0825,1.0781
2025-07-16 15:18:41.285402,193,-2782.8,-0.009,0.082,1.0822
2025-07-16 15:18:41.375565,194,-2651.7,-0.0053,0.0832,1.0769
2025-07-16 15:18:41.673346,199,3246.5,-0.0078,0.08,1.0788
2025-07-16 15:18:41.773346,199,-2913.8,-0.0056,0.0815,1.0815
2025-07-16 15:18:41.873346,199,-2651.7,-0.0051,0.0781,1.0869
2025-07-16 15:18:41.988445,202,-2782.8,-0.0056,0.0788,1.0793
2025-07-16 15:18:42.088445,202,-2651.7,-0.0078,0.0793,1.0837
2025-07-16 15:18:42.188445,202,-2913.8,-0.0075,0.0815,1.0883
2025-07-16 15:18:42.274501,203,3246.5,-0.0034,0.0834,1.0893
2025-07-16 15:18:42.573278,208,-3044.9,-0.0012,0.082,1.0866
2025-07-16 15:18:42.673278,208,-3044.9,-0.0029,0.0771,1.0895
2025-07-16 15:18:42.773278,208,-3176.0,-0.0034,0.0822,1.0805
2025-07-16 15:18:43.802182,220,-2782.8,-0.0012,0.0808,1.081
2025-07-16 15:18:43.902182,220,-2520.6,-0.0051,0.0837,1.0922
2025-07-16 15:18:44.002182,220,-2913.8,-0.0034,0.0805,1.083
2025-07-16 15:18:44.377802,226,-2782.8,-0.0048,0.0798,1.081
2025-07-16 15:18:44.477802,226,-2651.7,-0.0056,0.0822,1.0825
2025-07-16 15:18:44.577802,226,-2127.4,-0.0058,0.0808,1.083
2025-07-16 15:18:44.674647,229,-1996.3,-0.0048,0.0812,1.0847
2025-07-16 15:18:44.774647,229,-2389.6,-0.0021,0.0859,1.082
2025-07-16 15:18:44.874647,229,-2520.6,-0.0036,0.0805,1.0776
2025-07-16 15:18:44.976024,232,-2651.7,-0.0058,0.0805,1.0859
2025-07-16 15:18:45.076024,232,-2913.8,-0.0009,0.0891,1.083
2025-07-16 15:18:45.176024,232,-2782.8,-0.0061,0.0822,1.0861
2025-07-16 15:18:45.290117,235,-2782.8,-0.007,0.0839,1.0769
2025-07-16 15:18:45.390117,235,-2913.8,-0.0029,0.0805,1.0817
2025-07-16 15:18:45.490117,235,-3044.9,-0.0051,0.0861,1.0805
2025-07-16 15:18:45.875907,241,-3044.9,-0.0043,0.0822,1.0859
2025-07-16 15:18:45.975907,241,-2913.8,-0.0043,0.0825,1.0852
2025-07-16 15:18:46.075907,241,-2782.8,-0.0085,0.0815,1.0842
2025-07-16 15:18:46.775590,250,-3176.0,-0.0019,0.0795,1.0793
2025-07-16 15:18:46.875590,250,-2782.8,-0.0029,0.081,1.0776
2025-07-16 15:18:46.975590,250,-2651.7,-0.0061,0.0844,1.0876
2025-07-16 15:18:47.374400,0,-2913.8,-0.0061,0.0844,1.0874
2025-07-16 15:18:47.474400,0,-2651.7,-0.0051,0.0834,1.09
2025-07-16 15:18:47.574400,0,-2651.7,-0.007,0.0803,1.0812
2025-07-16 15:18:47.674588,1,-2782.8,-0.0075,0.0817,1.0773
2025-07-16 15:18:47.775870,3,-2651.7,-0.0048,0.0827,1.0834
2025-07-16 15:18:47.875870,3,-2651.7,-0.0046,0.0795,1.0798
2025-07-16 15:18:48.675891,13,-2651.7,-0.0085,0.0788,1.0803
2025-07-16 15:18:48.775891,13,-2782.8,-0.0107,0.0817,1.0881
2025-07-16 15:18:48.875891,13,-2651.7,-0.0068,0.0847,1.0852
2025-07-16 15:18:49.475858,21,-2913.8,-0.0063,0.0808,1.0849
2025-07-16 15:18:49.575858,21,-2913.8,-0.0087,0.0832,1.082
2025-07-16 15:18:49.675858,21,-2520.6,-0.0085,0.0842,1.08
2025-07-16 15:18:51.875751,45,-2651.7,-0.0039,0.0842,1.0815
2025-07-16 15:18:51.975751,45,-2651.7,-0.0041,0.083,1.0781
2025-07-16 15:18:52.075751,45,-2913.8,-0.008,0.081,1.0888
2025-07-16 15:18:54.873727,75,-2913.8,-0.0141,0.0834,1.092
2025-07-16 15:18:54.973727,75,-2913.8,-0.0114,0.0832,1.0886
2025-07-16 15:18:55.073727,75,-2913.8,-0.0122,0.0793,1.0854
2025-07-16 15:18:55.575817,82,-2782.8,-0.0061,0.0871,1.0852
2025-07-16 15:18:55.675817,82,-2520.6,-0.0056,0.081,1.0839
2025-07-16 15:18:55.775817,82,-2782.8,-0.0039,0.081,1.0812
2025-07-16 15:19:03.903170,165,-3044.9,-0.0058,0.0822,1.083
2025-07-16 15:19:04.003170,165,-3044.9,-0.0046,0.0791,1.0812
2025-07-16 15:19:04.103170,165,-2782.8,-0.0075,0.0795,1.0856
2025-07-16 15:19:07.234582,198,-2389.6,-0.0048,0.0795,1.0803
2025-07-16 15:19:07.334582,198,-2782.8,-0.0019,0.0791,1.0771
2025-07-16 15:19:07.434582,198,-2913.8,-0.0029,0.0805,1.0798
2025-07-16 15:19:07.489320,201,-3044.9,-0.0078,0.0808,1.0817
2025-07-16 15:19:07.589320,201,-2782.8,-0.0048,0.0803,1.0822
2025-07-16 15:19:07.689320,201,-2258.5,-0.0053,0.0759,1.0822
2025-07-16 15:19:09.573243,222,-3044.9,-0.0063,0.081,1.0832
2025-07-16 15:19:09.673243,222,-2782.8,-0.0043,0.0781,1.081
2025-07-16 15:19:09.773243,222,-2782.8,-0.0026,0.08,1.0859
2025-07-16 15:19:11.090337,237,-2782.8,-0.009,0.0817,1.0864
2025-07-16 15:19:11.190337,237,-3044.9,-0.0085,0.0815,1.0825
2025-07-16 15:19:11.290337,237,-3176.0,-0.0061,0.0822,1.0888
2025-07-16 15:19:11.375447,240,-2913.8,-0.0046,0.082,1.0866
2025-07-16 15:19:11.475447,240,-2651.7,-0.0056,0.081,1.0903
2025-07-16 15:19:11.575447,240,-2520.6,-0.0034,0.0815,1.0874
2025-07-16 15:19:14.073561,11,-2389.6,-0.0039,0.0817,1.0817
2025-07-16 15:19:14.173561,11,-2389.6,-0.0063,0.0825,1.0852
2025-07-16 15:19:14.273561,11,-2258.5,-0.0092,0.0815,1.0805
2025-07-16 15:19:14.676381,17,-2389.6,-0.0056,0.0805,1.0854
2025-07-16 15:19:14.776381,17,-2651.7,-0.0056,0.0808,1.0842
2025-07-16 15:19:14.876381,17,-2389.6,-0.0039,0.0791,1.0849
2025-07-16 15:19:16.476362,35,-2651.7,-0.0078,0.0834,1.0732
2025-07-16 15:19:16.576362,35,-2651.7,-0.0056,0.0842,1.0805
2025-07-16 15:19:16.676362,35,-3044.9,-0.0034,0.0786,1.08
2025-07-16 15:19:16.775506,36,-2913.8,-0.0046,0.0803,1.0786
2025-07-16 15:19:19.473371,65,-2389.6,0.0036,0.0825,1.082
2025-07-16 15:19:19.573371,65,-2782.8,-0.0058,0.083,1.0783
2025-07-16 15:19:19.673371,65,-2782.8,-0.008,0.0822,1.0756
2025-07-16 15:19:19.785870,66,-2520.6,-0.0021,0.0817,1.0769
2025-07-16 15:19:20.691051,75,-2520.6,-0.0051,0.0817,1.0798
2025-07-16 15:19:20.791051,75,-2520.6,-0.0095,0.081,1.0837
2025-07-16 15:19:20.891051,75,-2651.7,-0.0075,0.0847,1.0861
2025-07-16 15:19:22.290046,93,-2651.7,-0.0039,0.083,1.082
2025-07-16 15:19:22.390046,93,-2520.6,-0.0021,0.0837,1.0793
2025-07-16 15:19:22.490046,93,-2258.5,-0.0063,0.0798,1.0788
2025-07-16 15:19:22.776032,98,-2651.7,-0.0031,0.0839,1.0876
2025-07-16 15:19:22.876032,98,-2651.7,-0.0046,0.0808,1.0915
2025-07-16 15:19:22.976032,98,-3044.9,-0.0051,0.0805,1.0852
2025-07-16 15:19:23.198616,102,-3044.9,-0.0053,0.0815,1.0847
2025-07-16 15:19:23.298616,102,-2913.8,-0.0083,0.0822,1.0849
2025-07-16 15:19:23.398616,102,-3044.9,-0.0046,0.0812,1.0737
2025-07-16 15:19:26.474505,135,-2913.8,-0.0065,0.0827,1.083
2025-07-16 15:19:26.574505,135,-2913.8,-0.0068,0.0783,1.0791
2025-07-16 15:19:26.674505,135,-2913.8,-0.009,0.0847,1.0874
2025-07-16 15:19:27.873233,149,-2782.8,-0.0075,0.0839,1.0878
2025-07-16 15:19:27.973233,149,-2520.6,-0.0061,0.0793,1.0893
2025-07-16 15:19:28.073233,149,-2520.6,-0.0053,0.0776,1.0927
2025-07-16 15:19:28.773410,158,-2651.7,-0.0039,0.0808,1.0803
2025-07-16 15:19:28.873410,158,-2651.7,-0.007,0.0781,1.0771
2025-07-16 15:19:28.973410,158,-2913.8,-0.0056,0.0803,1.0837
2025-07-16 15:19:29.092368,161,-2782.8,-0.0061,0.0854,1.0781
2025-07-16 15:19:29.192368,161,-2782.8,-0.0036,0.0822,1.0854
2025-07-16 15:19:29.292368,161,-2782.8,-0.0056,0.0803,1.082
2025-07-16 15:19:29.384033,164,-2782.8,-0.0063,0.08,1.082
2025-07-16 15:19:29.484033,164,-3044.9,-0.0061,0.0832,1.0854
2025-07-16 15:19:29.584033,164,-2913.8,-0.0083,0.0781,1.081
2025-07-16 15:19:30.275941,173,-2782.8,-0.0021,0.082,1.0871
2025-07-16 15:19:30.375941,173,-2651.7,-0.0048,0.0825,1.0859
2025-07-16 15:19:30.475941,173,-2651.7,-0.0056,0.0817,1.0893
2025-07-16 15:19:31.186316,182,-2127.4,-0.0078,0.0827,1.0886
2025-07-16 15:19:31.286316,182,-2127.4,-0.0075,0.083,1.083
2025-07-16 15:19:31.386316,182,-2389.6,-0.0058,0.0827,1.0783
2025-07-16 15:19:31.476196,185,-2782.8,-0.0104,0.0832,1.0832
2025-07-16 15:19:31.576196,185,-2651.7,-0.0061,0.0803,1.0869
2025-07-16 15:19:31.676196,185,-2389.6,-0.008,0.0839,1.0825
2025-07-16 15:19:32.673279,197,-2651.7,-0.0029,0.0822,1.0712
2025-07-16 15:19:32.773279,197,-2651.7,-0.0031,0.082,1.0827
2025-07-16 15:19:32.873279,197,-2782.8,-0.0051,0.0832,1.0817
2025-07-16 15:19:33.673002,207,-2389.6,-0.0056,0.083,1.0844
2025-07-16 15:19:33.773002,207,-2389.6,-0.0036,0.0822,1.0749
2025-07-16 15:19:33.873002,207,-2389.6,-0.0048,0.0793,1.0864
2025-07-16 15:19:34.791362,216,-2258.5,-0.0073,0.0805,1.0844
2025-07-16 15:19:34.891362,216,-2389.6,-0.0051,0.0825,1.0808
2025-07-16 15:19:34.991362,216,-2651.7,-0.0051,0.0791,1.0886
2025-07-16 15:19:35.075947,221,-2258.5,-0.0092,0.0886,1.0673
2025-07-16 15:19:35.175947,221,-2258.5,-0.0039,0.0791,1.0908
2025-07-16 15:19:35.275947,221,-2520.6,-0.0002,0.0854,1.0756
2025-07-16 15:19:35.375557,222,-1996.3,-0.0085,0.0808,1.072
2025-07-16 15:19:35.696678,227,-2520.6,0.0017,0.0834,1.0876
2025-07-16 15:19:35.796678,227,-2258.5,-0.0051,0.0815,1.0808
2025-07-16 15:19:35.896678,227,-2389.6,-0.0036,0.0815,1.0961
2025-07-16 15:19:36.174955,228,-2782.8,-0.0063,0.0852,1.0783
2025-07-16 15:19:36.075429,230,-2913.8,-0.0053,0.0798,1.0842
2025-07-16 15:19:36.175429,230,-2520.6,-0.0053,0.0834,1.081
2025-07-16 15:19:36.273168,233,-2520.6,-0.0048,0.0817,1.082
2025-07-16 15:19:36.373168,233,-2913.8,-0.0126,0.0895,1.07
2025-07-16 15:19:36.473168,233,-2520.6,-0.0083,0.081,1.0725
2025-07-16 15:19:36.674789,237,-2913.8,-0.0065,0.0861,1.0729
2025-07-16 15:19:36.774789,237,-2258.5,-0.0061,0.0771,1.0891
2025-07-16 15:19:36.874789,237,-2389.6,-0.0104,0.0798,1.0927
2025-07-16 15:19:37.485061,245,-2520.6,-0.0063,0.0815,1.0803
2025-07-16 15:19:37.585061,245,-2389.6,-0.007,0.0805,1.0864
2025-07-16 15:19:37.685061,245,-2520.6,-0.0085,0.0781,1.0922
2025-07-16 15:19:37.774278,246,-2389.6,-0.0109,0.0878,1.0715
2025-07-16 15:19:37.875606,248,-2258.5,-0.0034,0.0827,1.083
2025-07-16 15:19:37.975606,248,-2258.5,-0.0075,0.0832,1.0773
2025-07-16 15:19:38.482205,255,-2520.6,-0.0004,0.0766,1.0864
2025-07-16 15:19:38.582205,255,-2651.7,-0.0048,0.0866,1.0637
2025-07-16 15:19:38.682205,255,-2651.7,-0.0058,0.0815,1.0781
2025-07-16 15:19:38.799512,1,-2520.6,-0.0039,0.0852,1.0676
2025-07-16 15:19:38.899512,1,-2389.6,-0.0019,0.0847,1.0561
2025-07-16 15:19:39.289782,7,-2782.8,-0.0053,0.0795,1.0788
2025-07-16 15:19:39.389782,7,-2782.8,-0.0112,0.0739,1.0449
2025-07-16 15:19:39.489782,7,-2651.7,-0.0009,0.0764,1.112
2025-07-16 15:19:40.507584,17,-2651.7,-0.0012,0.083,1.0908
2025-07-16 15:19:40.607584,17,-2651.7,-0.0075,0.083,1.0661
2025-07-16 15:19:40.707584,17,-2389.6,-0.0046,0.0812,1.0773
2025-07-16 15:19:40.872913,23,-2520.6,-0.0085,0.0783,1.0822
2025-07-16 15:19:40.972913,23,-2520.6,-0.0051,0.0815,1.081
2025-07-16 15:19:41.072913,23,-2520.6,-0.0061,0.0812,1.082
2025-07-16 15:19:41.174249,25,-2127.4,-0.0068,0.0795,1.082
2025-07-16 15:19:41.274249,25,-1996.3,-0.0046,0.0791,1.0834
2025-07-16 15:19:41.376167,28,-2127.4,-0.0063,0.083,1.0732
2025-07-16 15:19:41.476167,28,-2127.4,-0.008,0.0825,1.0642
2025-07-16 15:19:41.576167,28,-2389.6,-0.0041,0.081,1.0856
2025-07-16 15:19:41.713867,31,-2651.7,-0.0083,0.0793,1.0781
2025-07-16 15:19:41.813867,31,-2127.4,-0.0056,0.0722,1.1079
2025-07-16 15:19:41.913867,31,-2127.4,-0.0051,0.0847,1.0715
2025-07-16 15:19:42.032327,34,-2389.6,-0.0053,0.0739,1.1064
2025-07-16 15:19:42.132327,34,-2520.6,-0.0048,0.0795,1.0795
2025-07-16 15:19:42.232327,34,-2651.7,-0.0051,0.0837,1.0783
2025-07-16 15:19:44.676612,61,-1996.3,-0.0075,0.0825,1.0769
2025-07-16 15:19:44.776612,61,-2127.4,-0.0039,0.0793,1.0861
2025-07-16 15:19:44.876612,61,-2258.5,-0.0048,0.0783,1.0832
2025-07-16 15:19:46.474618,79,-2389.6,-0.0058,0.0795,1.091
2025-07-16 15:19:46.574618,79,-2520.6,-0.0073,0.0827,1.0881
2025-07-16 15:19:46.674618,79,-3044.9,-0.0085,0.0822,1.0876
2025-07-16 15:19:47.375035,88,-2520.6,-0.0046,0.0815,1.0839
2025-07-16 15:19:47.475035,88,-2651.7,-0.0078,0.0798,1.0869
2025-07-16 15:19:47.575035,88,-2520.6,-0.0056,0.0825,1.0866
2025-07-16 15:19:49.475886,109,-2127.4,-0.0026,0.0783,1.0952
2025-07-16 15:19:49.575886,109,-2258.5,-0.009,0.08,1.0849
2025-07-16 15:19:49.675886,109,-2651.7,-0.0053,0.0805,1.0837
2025-07-16 15:19:52.173404,136,-2651.7,-0.0073,0.0795,1.083
2025-07-16 15:19:52.273404,136,-2389.6,-0.0068,0.0791,1.0844
2025-07-16 15:19:52.373404,136,-2389.6,-0.0058,0.0849,1.0825
2025-07-16 15:19:52.791615,142,-2651.7,-0.0051,0.0776,1.0749
2025-07-16 15:19:52.891615,142,-2258.5,-0.0085,0.0805,1.0791
2025-07-16 15:19:52.991615,142,-2520.6,-0.0063,0.0803,1.0856
2025-07-16 15:19:56.683109,181,-2389.6,-0.0087,0.0844,1.0786
2025-07-16 15:19:56.783109,181,-2651.7,-0.0048,0.0869,1.0842
2025-07-16 15:19:56.883109,181,-2651.7,-0.0087,0.0825,1.0837
2025-07-16 15:19:59.075547,205,-1996.3,-0.0075,0.0837,1.081
2025-07-16 15:19:59.175547,205,-2127.4,-0.0031,0.0825,1.0808
2025-07-16 15:19:59.275547,205,-2651.7,-0.0058,0.0808,1.0869
2025-07-16 15:19:59.774192,212,-3176.0,-0.0075,0.0798,1.0834
2025-07-16 15:19:59.874192,212,-3044.9,-0.0087,0.0805,1.0874
2025-07-16 15:19:59.974192,212,-2782.8,-0.0024,0.0805,1.0942
2025-07-16 15:20:05.486807,13,-2389.6,-0.0061,0.0812,1.0756
2025-07-16 15:20:05.586807,13,-2389.6,-0.007,0.08,1.0866
2025-07-16 15:20:05.686807,13,-2651.7,-0.0048,0.0844,1.071
2025-07-16 15:20:08.675268,45,-2520.6,-0.0034,0.0788,1.0913
2025-07-16 15:20:08.775268,45,-2389.6,-0.0031,0.0844,1.0732
2025-07-16 15:20:08.875268,45,-2520.6,-0.0026,0.0773,1.0922
2025-07-16 15:20:09.276940,49,-2389.6,-0.0107,0.0815,1.0805
2025-07-16 15:20:09.376940,49,-2389.6,-0.01,0.0791,1.0834
2025-07-16 15:20:09.476940,49,-2520.6,-0.0048,0.081,1.0864
2025-07-16 15:20:09.873025,57,-2913.8,0.0014,0.0837,1.0715
2025-07-16 15:20:09.973025,57,-2913.8,-0.0075,0.0881,1.0759
2025-07-16 15:20:10.073025,57,-3176.0,-0.0053,0.0817,1.0754
2025-07-16 15:20:13.272882,91,-2782.8,-0.0075,0.0761,1.0817
2025-07-16 15:20:13.372882,91,-2913.8,-0.0024,0.0844,1.0905
2025-07-16 15:20:13.472882,91,-2520.6,-0.0058,0.0837,1.0854
2025-07-16 15:20:15.072750,109,-2520.6,-0.0061,0.0812,1.0822
2025-07-16 15:20:15.172750,109,-2520.6,-0.0083,0.0793,1.0861
2025-07-16 15:20:15.272750,109,-2389.6,-0.009,0.0817,1.0793
2025-07-16 15:20:15.891193,117,-2651.7,-0.0021,0.0771,1.0854
2025-07-16 15:20:15.991193,117,-2520.6,-0.0065,0.0788,1.0839
2025-07-16 15:20:16.091193,117,-2520.6,-0.0058,0.0812,1.0837
2025-07-16 15:20:16.174159,120,-2520.6,-0.0083,0.0832,1.0849
2025-07-16 15:20:16.274159,120,-2651.7,-0.0048,0.0817,1.0808
2025-07-16 15:20:16.374159,120,-2651.7,-0.0056,0.0859,1.0776
2025-07-16 15:20:16.474533,121,-2389.6,-0.0085,0.0817,1.0847
2025-07-16 15:20:16.872767,127,-2651.7,-0.0048,0.0776,1.0932
2025-07-16 15:20:16.972767,127,-2520.6,-0.0068,0.0861,1.062
2025-07-16 15:20:17.072767,127,-2389.6,-0.0034,0.0839,1.0837
2025-07-16 15:20:17.184748,129,-2389.6,-0.0085,0.0817,1.0817
2025-07-16 15:20:17.284748,129,-2258.5,-0.0117,0.0917,1.0363
2025-07-16 15:20:17.375574,132,-2520.6,-0.0036,0.081,1.0986
2025-07-16 15:20:17.475574,132,-2520.6,-0.0141,0.0849,1.0456
2025-07-16 15:20:17.575574,132,-2127.4,0.0026,0.0844,1.0751
2025-07-16 15:20:18.296826,141,-2520.6,-0.0046,0.08,1.0827
2025-07-16 15:20:18.396826,141,-2258.5,-0.0068,0.0839,1.0859
2025-07-16 15:20:18.496826,141,-1996.3,-0.0056,0.083,1.0795
2025-07-16 15:20:19.175351,150,-2389.6,-0.009,0.082,1.0939
2025-07-16 15:20:19.275351,150,-2520.6,0.0031,0.0844,1.0729
2025-07-16 15:20:19.375351,150,-2258.5,-0.0056,0.0773,1.0898
2025-07-16 15:20:19.787208,156,-2389.6,-0.0039,0.0812,1.0729
2025-07-16 15:20:19.887208,156,-2389.6,-0.0058,0.0817,1.0812
2025-07-16 15:20:19.987208,156,-2389.6,-0.0119,0.0881,1.0607
2025-07-16 15:20:21.891811,177,-2651.7,-0.0024,0.0793,1.0812
2025-07-16 15:20:21.991811,177,-2258.5,-0.007,0.0805,1.0876
2025-07-16 15:20:22.091811,177,-2651.7,-0.0078,0.0791,1.0839
2025-07-16 15:20:22.272781,181,-2651.7,-0.0068,0.0822,1.0798
2025-07-16 15:20:22.372781,181,-2389.6,-0.0046,0.0778,1.0842
2025-07-16 15:20:22.472781,181,-2389.6,-0.0078,0.0817,1.0776
2025-07-16 15:20:22.875246,187,-2782.8,-0.0087,0.0776,1.0903
2025-07-16 15:20:22.975246,187,-2520.6,-0.0026,0.0842,1.0734
2025-07-16 15:20:23.075246,187,-2258.5,-0.0068,0.0805,1.0932
2025-07-16 15:20:23.373964,192,-2127.4,-0.0085,0.0878,1.0693
2025-07-16 15:20:23.473964,192,-1996.3,-0.0156,0.0832,1.0612
2025-07-16 15:20:23.573964,192,-2389.6,-0.0051,0.0808,1.0764
2025-07-16 15:20:24.274528,201,-2913.8,-0.0065,0.0832,1.0849
2025-07-16 15:20:24.374528,201,-2520.6,-0.0043,0.0764,1.08
2025-07-16 15:20:24.474528,201,-2389.6,-0.0036,0.0788,1.0805
2025-07-16 15:20:24.972726,208,-2127.4,-0.0112,0.0866,1.0476
2025-07-16 15:20:25.072726,208,-2389.6,0.0041,0.0798,1.0654
2025-07-16 15:20:25.172726,208,-2651.7,-0.0097,0.0795,1.0864
2025-07-16 15:20:26.474095,223,-2127.4,-0.009,0.0834,1.0832
2025-07-16 15:20:26.574095,223,-2389.6,-0.0065,0.081,1.0891
2025-07-16 15:20:26.674095,223,-2127.4,-0.0097,0.082,1.0871
2025-07-16 15:20:27.988583,238,-2651.7,-0.0068,0.0832,1.0874
2025-07-16 15:20:28.088583,238,-2651.7,-0.0075,0.0827,1.0739
2025-07-16 15:20:28.188583,238,-2389.6,0.0063,0.0922,1.0458
2025-07-16 15:20:28.274450,240,-2389.6,-0.0075,0.0808,1.0793
2025-07-16 15:20:28.374450,240,-2258.5,-0.0063,0.0844,1.092
2025-07-16 15:20:28.499161,243,-2258.5,-0.0087,0.0798,1.0805
2025-07-16 15:20:28.599161,243,-2389.6,-0.0036,0.0839,1.0834
2025-07-16 15:20:28.699161,243,-2520.6,-0.0073,0.0803,1.0817
2025-07-16 15:20:29.788526,0,-2258.5,-0.0036,0.0822,1.0791
2025-07-16 15:20:29.888526,0,-2651.7,-0.0029,0.0847,1.0812
2025-07-16 15:20:29.988526,0,-2520.6,-0.009,0.0832,1.0827
2025-07-16 15:20:30.075420,2,-1996.3,-0.0043,0.0803,1.0849
2025-07-16 15:20:30.175420,2,-2127.4,-0.0065,0.08,1.0878
2025-07-16 15:20:30.275634,5,-2258.5,-0.0068,0.0815,1.0786
2025-07-16 15:20:30.375634,5,-2520.6,-0.0058,0.0825,1.0778
2025-07-16 15:20:30.475634,5,-2520.6,-0.0083,0.0786,1.0837
2025-07-16 15:20:31.072978,13,-2389.6,-0.0041,0.0808,1.0695
2025-07-16 15:20:31.172978,13,-2782.8,-0.0026,0.0805,1.0878
2025-07-16 15:20:31.272978,13,-2913.8,-0.0036,0.0803,1.0847
2025-07-16 15:20:31.381139,15,-2651.7,-0.0136,0.0825,1.0874
2025-07-16 15:20:31.481139,15,-2258.5,-0.0039,0.0817,1.0869
2025-07-16 15:20:31.597132,17,-2127.4,-0.0063,0.0803,1.0756
2025-07-16 15:20:31.697132,17,-2258.5,-0.0092,0.0876,1.0759
2025-07-16 15:20:31.783155,18,-2520.6,-0.0034,0.0812,1.092
2025-07-16 15:20:32.682986,29,-2389.6,-0.007,0.091,1.0805
2025-07-16 15:20:32.782986,29,-2389.6,-0.0068,0.0878,1.0783
2025-07-16 15:20:32.882986,29,-2258.5,-0.0131,0.0795,1.0571
2025-07-16 15:20:33.274695,33,-1996.3,-0.0024,0.0844,1.0795
2025-07-16 15:20:33.374695,33,-2127.4,-0.0085,0.0822,1.091
2025-07-16 15:20:33.474695,33,-2258.5,-0.0083,0.0812,1.071
2025-07-16 15:20:33.375224,35,-2127.4,-0.0075,0.0756,1.0844
2025-07-16 15:20:33.475224,35,-2258.5,-0.0053,0.0839,1.0776
2025-07-16 15:20:33.578935,38,-2258.5,-0.0043,0.0839,1.0871
2025-07-16 15:20:33.678935,38,-2258.5,-0.0051,0.082,1.0812
2025-07-16 15:20:33.778935,38,-1996.3,-0.0078,0.082,1.0815
2025-07-16 15:20:33.897230,41,-1865.3,-0.0078,0.0849,1.0874
2025-07-16 15:20:33.997230,41,-2389.6,-0.0092,0.0832,1.0808
2025-07-16 15:20:34.097230,41,-2520.6,0.0036,0.092,1.049
2025-07-16 15:20:34.276224,45,-2389.6,-0.0087,0.0822,1.072
2025-07-16 15:20:34.376224,45,-2389.6,-0.0061,0.0759,1.0988
2025-07-16 15:20:34.476224,45,-2258.5,-0.007,0.0776,1.0859
2025-07-16 15:20:35.092417,53,-2389.6,-0.0051,0.0793,1.0886
2025-07-16 15:20:35.192417,53,-2389.6,-0.0034,0.0771,1.0852
2025-07-16 15:20:35.292417,53,-2127.4,-0.0083,0.0842,1.0842
2025-07-16 15:20:37.474082,77,-1996.3,-0.0056,0.0827,1.0654
2025-07-16 15:20:37.574082,77,-2520.6,-0.0068,0.0764,1.0993
2025-07-16 15:20:37.674082,77,-2782.8,-0.0048,0.0871,1.0725
2025-07-16 15:20:38.675699,89,-2389.6,-0.0063,0.0822,1.0827
2025-07-16 15:20:38.775699,89,-2258.5,-0.0058,0.0844,1.0791
2025-07-16 15:20:38.875699,89,-2782.8,-0.0039,0.0815,1.0786
2025-07-16 15:20:38.975780,90,-2782.8,-0.0053,0.0773,1.0837
2025-07-16 15:20:39.274376,95,-2258.5,-0.0024,0.0815,1.0844
2025-07-16 15:20:39.374376,95,-2258.5,-0.0058,0.0817,1.0866
2025-07-16 15:20:39.474376,95,-2520.6,-0.0078,0.0815,1.0793
2025-07-16 15:20:39.675412,99,-2258.5,-0.0041,0.0834,1.0825
2025-07-16 15:20:39.775412,99,-2520.6,-0.0078,0.0817,1.0869
2025-07-16 15:20:39.875412,99,-2782.8,-0.0073,0.0808,1.0837
2025-07-16 15:20:42.375354,126,-2651.7,-0.0112,0.0817,1.0781
2025-07-16 15:20:42.475354,126,-2389.6,-0.0048,0.0825,1.0793
2025-07-16 15:20:42.575354,126,-2389.6,-0.0065,0.0817,1.0834
2025-07-16 15:20:43.175517,134,-2389.6,-0.0034,0.0856,1.0754
2025-07-16 15:20:43.275517,134,-2520.6,-0.0043,0.0786,1.102
2025-07-16 15:20:43.375517,134,-2520.6,-0.0063,0.0905,1.0659
2025-07-16 15:20:43.473627,137,-2651.7,-0.0065,0.0793,1.0822
2025-07-16 15:20:43.573627,137,-2651.7,-0.0041,0.0822,1.0827
2025-07-16 15:20:43.673627,137,-2651.7,-0.007,0.081,1.0869
2025-07-16 15:20:44.075798,143,-2389.6,-0.0048,0.0842,1.0788
2025-07-16 15:20:44.175798,143,-2258.5,-0.008,0.0815,1.082
2025-07-16 15:20:44.275798,143,-2389.6,-0.0053,0.0805,1.0874
2025-07-16 15:20:44.702288,149,-2651.7,-0.0048,0.0761,1.0825
2025-07-16 15:20:44.802288,149,-2389.6,-0.007,0.0832,1.0849
2025-07-16 15:20:44.902288,149,-2127.4,-0.0097,0.0842,1.083
2025-07-16 15:20:45.875732,161,-2389.6,-0.0087,0.0759,1.0825
2025-07-16 15:20:45.975732,161,-2520.6,-0.0058,0.0766,1.0869
2025-07-16 15:20:46.075732,161,-2651.7,-0.0017,0.0771,1.1213
2025-07-16 15:20:47.088544,173,-1996.3,-0.0058,0.08,1.0837
2025-07-16 15:20:47.188544,173,-2389.6,-0.0065,0.0815,1.0812
2025-07-16 15:20:47.288544,173,-2651.7,-0.0126,0.0854,1.0556
2025-07-16 15:20:48.886982,191,-2651.7,-0.0056,0.0822,1.0815
2025-07-16 15:20:48.986982,191,-2651.7,-0.0065,0.0844,1.0695
2025-07-16 15:20:49.086982,191,-2389.6,-0.0053,0.0803,1.0815
2025-07-16 15:20:49.174477,194,-2127.4,-0.0043,0.081,1.0817
2025-07-16 15:20:49.274477,194,-2258.5,-0.0065,0.0832,1.0842
2025-07-16 15:20:49.374477,194,-2651.7,-0.0065,0.0847,1.0793
2025-07-16 15:20:49.773123,200,-2520.6,-0.0102,0.0803,1.091
2025-07-16 15:20:49.873123,200,-2651.7,-0.0039,0.0744,1.0754
2025-07-16 15:20:49.973123,200,-2389.6,-0.0092,0.0805,1.083
2025-07-16 15:20:50.174318,204,-2651.7,-0.0068,0.0825,1.0905
2025-07-16 15:20:50.274318,204,-2651.7,0.0024,0.0878,1.0681
2025-07-16 15:20:50.374318,204,-2520.6,-0.0036,0.081,1.0852
2025-07-16 15:20:51.388814,216,-2782.8,-0.0053,0.0795,1.0976
2025-07-16 15:20:51.488814,216,-2651.7,-0.0046,0.0825,1.0732
2025-07-16 15:20:51.588814,216,-2389.6,-0.0083,0.0825,1.0837
2025-07-16 15:20:52.800282,230,-2782.8,-0.009,0.0773,1.0822
2025-07-16 15:20:52.900282,230,-2651.7,-0.0083,0.0815,1.0869
2025-07-16 15:20:53.000282,230,-2520.6,-0.0075,0.0822,1.0871
2025-07-16 15:20:53.675583,239,-2782.8,-0.0034,0.0798,1.0803
2025-07-16 15:20:53.775583,239,-2913.8,-0.0061,0.0842,1.0798
2025-07-16 15:20:53.875583,239,-2651.7,-0.0043,0.0805,1.0795
2025-07-16 15:20:53.976039,240,-2520.6,-0.0065,0.0839,1.0795
2025-07-16 15:20:54.888957,251,-2651.7,-0.0056,0.0803,1.0861
2025-07-16 15:20:54.988957,251,-2389.6,-0.0048,0.0791,1.0795
2025-07-16 15:20:55.088957,251,-2389.6,-0.0048,0.0817,1.0793
2025-07-16 15:20:55.274126,255,-2520.6,-0.0036,0.0771,1.0859
2025-07-16 15:20:55.374126,255,-2651.7,-0.0034,0.0834,1.0856
2025-07-16 15:20:55.474126,255,-2520.6,-0.0051,0.0839,1.0808
2025-07-16 15:20:55.773218,4,-2389.6,-0.0097,0.0822,1.0834
2025-07-16 15:20:55.873218,4,-2520.6,-0.0056,0.082,1.08
2025-07-16 15:20:55.973218,4,-2913.8,-0.0051,0.0861,1.0942
2025-07-16 15:20:56.672666,11,-2520.6,-0.0053,0.0837,1.0852
2025-07-16 15:20:56.772666,11,-2389.6,-0.0002,0.0861,1.0788
2025-07-16 15:20:56.872666,11,-2389.6,-0.0014,0.0812,1.0981
2025-07-16 15:21:02.174792,68,-1734.2,-0.0056,0.0815,1.0842
2025-07-16 15:21:02.274792,68,-2258.5,-0.0087,0.0808,1.0871
2025-07-16 15:21:02.374792,68,-2258.5,-0.0102,0.0812,1.0793
2025-07-16 15:21:05.975558,106,-2258.5,-0.0031,0.0793,1.0903
2025-07-16 15:21:06.075558,106,-2651.7,-0.0078,0.0856,1.0786
2025-07-16 15:21:06.175558,106,-2782.8,-0.0075,0.081,1.0852
2025-07-16 15:21:07.172816,118,-2782.8,-0.0058,0.0805,1.0715
2025-07-16 15:21:07.272816,118,-3176.0,-0.0073,0.0822,1.0888
2025-07-16 15:21:07.372816,118,-2651.7,-0.0029,0.0795,1.0871
2025-07-16 15:21:08.386316,130,-2782.8,-0.0068,0.0786,1.0815
2025-07-16 15:21:08.486316,130,-2782.8,-0.0068,0.0834,1.0854
2025-07-16 15:21:08.586316,130,-2651.7,-0.0073,0.0783,1.0817
2025-07-16 15:21:11.975388,166,-3176.0,-0.0078,0.081,1.082
2025-07-16 15:21:12.075388,166,-3044.9,-0.0058,0.08,1.0793
2025-07-16 15:21:12.175388,166,-2520.6,-0.0048,0.0791,1.082
2025-07-16 15:21:16.274404,209,-2389.6,-0.0048,0.0832,1.0898
2025-07-16 15:21:16.374404,209,-2389.6,-0.0073,0.0803,1.0842
2025-07-16 15:21:16.474404,209,-2651.7,-0.0078,0.0852,1.0832
2025-07-16 15:21:16.772991,214,-2913.8,-0.0075,0.0834,1.0761
2025-07-16 15:21:16.872991,214,-2782.8,-0.0073,0.0832,1.0783
2025-07-16 15:21:16.972991,214,-2651.7,-0.0046,0.0812,1.0805
2025-07-16 15:21:17.375889,220,-2520.6,-0.0097,0.082,1.0783
2025-07-16 15:21:17.475889,220,-2520.6,-0.0065,0.0798,1.0808
2025-07-16 15:21:17.575889,220,-2913.8,-0.007,0.0791,1.0861
2025-07-16 15:21:18.074385,227,-2651.7,-0.0053,0.0837,1.0847
2025-07-16 15:21:18.174385,227,-2127.4,-0.0058,0.0798,1.0849
2025-07-16 15:21:18.274385,227,-2389.6,-0.007,0.0822,1.0812
2025-07-16 15:21:20.673912,253,-2651.7,-0.01,0.08,1.0842
2025-07-16 15:21:20.773912,253,-3176.0,-0.0026,0.0832,1.0859
2025-07-16 15:21:20.873912,253,-3044.9,-0.0004,0.0839,1.0859
2025-07-16 15:21:22.474178,15,-2782.8,-0.0056,0.0751,1.0993
2025-07-16 15:21:22.574178,15,-2651.7,-0.0073,0.0808,1.0705
2025-07-16 15:21:22.674178,15,-2913.8,-0.0073,0.0808,1.0825
2025-07-16 15:21:23.072823,21,-1865.3,-0.0012,0.0812,1.0803
2025-07-16 15:21:23.172823,21,-2127.4,-0.0141,0.0822,1.071
2025-07-16 15:21:23.272823,21,-2520.6,-0.0056,0.0795,1.0874
2025-07-16 15:21:23.677669,27,-3176.0,-0.0039,0.0834,1.0869
2025-07-16 15:21:23.777669,27,-3176.0,-0.0161,0.0874,1.0451
2025-07-16 15:21:23.877669,27,-2389.6,-0.0085,0.0788,1.0898
2025-07-16 15:21:27.893100,69,-2651.7,-0.0056,0.0856,1.0769
2025-07-16 15:21:27.993100,69,-2389.6,-0.0026,0.0825,1.08
2025-07-16 15:21:28.093100,69,-2258.5,-0.0058,0.0825,1.0842
2025-07-16 15:21:28.174159,72,-2258.5,-0.0085,0.0834,1.0776
2025-07-16 15:21:28.274159,72,-2651.7,-0.0078,0.0791,1.0888
2025-07-16 15:21:28.374159,72,-2651.7,-0.008,0.0827,1.082
2025-07-16 15:21:29.683876,85,-2913.8,-0.0014,0.0839,1.0708
2025-07-16 15:21:29.783876,85,-2913.8,-0.0046,0.0837,1.0761
2025-07-16 15:21:29.883876,85,-2782.8,-0.0048,0.0781,1.0786
2025-07-16 15:21:29.974097,90,-2520.6,-0.0068,0.083,1.0812
2025-07-16 15:21:30.074097,90,-2782.8,-0.008,0.0825,1.0776
2025-07-16 15:21:30.174097,90,-3176.0,-0.0029,0.0839,1.0832
2025-07-16 15:21:32.672791,117,-3176.0,-0.0041,0.0827,1.0854
2025-07-16 15:21:32.772791,117,-2913.8,-0.008,0.082,1.0876
2025-07-16 15:21:32.872791,117,-2520.6,-0.0078,0.0844,1.0844
2025-07-16 15:21:33.275298,121,-2913.8,-0.0061,0.0827,1.0788
2025-07-16 15:21:33.375298,121,-3044.9,-0.0053,0.0812,1.0839
2025-07-16 15:21:33.475298,121,-2651.7,-0.0065,0.0832,1.0817
2025-07-16 15:21:33.375877,123,-2651.7,-0.0056,0.0825,1.0893
2025-07-16 15:21:33.475877,123,-2913.8,-0.0087,0.0808,1.0847
2025-07-16 15:21:33.873957,129,-2651.7,-0.0063,0.0825,1.0798
2025-07-16 15:21:33.973957,129,-2651.7,-0.0053,0.0849,1.0812
2025-07-16 15:21:34.073957,129,-2782.8,-0.0102,0.0837,1.0886
2025-07-16 15:21:34.774000,138,-2651.7,-0.0056,0.081,1.0893
2025-07-16 15:21:34.874000,138,-2782.8,-0.0046,0.0803,1.0856
2025-07-16 15:21:34.974000,138,-2913.8,-0.0061,0.082,1.0861
2025-07-16 15:21:35.373074,144,-3176.0,-0.0092,0.0805,1.0744
2025-07-16 15:21:35.473074,144,-2651.7,-0.0092,0.0786,1.0874
2025-07-16 15:21:35.573074,144,-2389.6,-0.0026,0.083,1.0856
2025-07-16 15:21:36.075481,151,-2651.7,-0.0092,0.0825,1.0805
2025-07-16 15:21:36.175481,151,-2782.8,-0.0046,0.0834,1.0844
2025-07-16 15:21:36.275481,151,-2913.8,-0.0075,0.082,1.0883
2025-07-16 15:21:36.583741,156,-2913.8,-0.0061,0.0803,1.08
2025-07-16 15:21:36.683741,156,-2651.7,-0.0053,0.081,1.0834
2025-07-16 15:21:36.783741,156,-2782.8,-0.0078,0.0825,1.0812
2025-07-16 15:21:37.473876,165,-2782.8,-0.0036,0.0834,1.0859
2025-07-16 15:21:37.573876,165,-2913.8,-0.007,0.0798,1.0808
2025-07-16 15:21:37.673876,165,-2782.8,-0.0073,0.0815,1.083
2025-07-16 15:21:37.775687,168,-2520.6,-0.008,0.0834,1.0803
2025-07-16 15:21:37.875687,168,-2782.8,-0.0065,0.081,1.0866
2025-07-16 15:21:37.975687,168,-2913.8,-0.0004,0.0822,1.0881
2025-07-16 15:21:38.431734,174,-2651.7,-0.0053,0.0805,1.0852
2025-07-16 15:21:38.531734,174,-2389.6,-0.007,0.0798,1.0925
2025-07-16 15:21:38.631734,174,-2651.7,-0.008,0.0781,1.0859
2025-07-16 15:21:39.373995,184,-2389.6,-0.0063,0.0859,1.0791
2025-07-16 15:21:39.473995,184,-2389.6,-0.0095,0.0788,1.0893
2025-07-16 15:21:39.573995,184,-2782.8,-0.0114,0.0781,1.1127
2025-07-16 15:21:39.873036,189,-2520.6,-0.0051,0.08,1.0815
2025-07-16 15:21:39.973036,189,-2651.7,-0.0051,0.0805,1.0864
2025-07-16 15:21:40.073036,189,-2389.6,-0.0039,0.081,1.0864
2025-07-16 15:21:40.475217,195,-2520.6,-0.007,0.0832,1.0756
2025-07-16 15:21:40.575217,195,-2913.8,-0.0058,0.0808,1.0827
2025-07-16 15:21:40.675217,195,-2651.7,-0.0065,0.0744,1.1135
2025-07-16 15:21:41.475635,205,-2782.8,-0.0065,0.0817,1.082
2025-07-16 15:21:41.575635,205,-2651.7,-0.0065,0.0808,1.083
2025-07-16 15:21:41.675635,205,-2520.6,-0.0034,0.0844,1.0834
2025-07-16 15:21:41.774520,207,-2520.6,-0.0058,0.0778,1.0866
2025-07-16 15:21:41.874520,207,-2520.6,-0.017,0.0844,1.0541
2025-07-16 15:21:42.284969,213,-2651.7,-0.0051,0.082,1.0744
2025-07-16 15:21:42.384969,213,-2651.7,-0.0039,0.0808,1.0817
2025-07-16 15:21:42.484969,213,-2651.7,-0.0065,0.0766,1.0815
2025-07-16 15:21:43.173225,222,-2651.7,-0.0075,0.0817,1.0783
2025-07-16 15:21:43.273225,222,-2913.8,-0.0026,0.0817,1.0861
2025-07-16 15:21:43.373225,222,-2782.8,-0.0036,0.0842,1.0742
2025-07-16 15:21:43.775489,228,-2520.6,-0.0068,0.0778,1.0893
2025-07-16 15:21:43.875489,228,-2651.7,-0.0141,0.0744,1.1159
2025-07-16 15:21:43.975489,228,-2782.8,-0.0061,0.0825,1.082
2025-07-16 15:21:44.075481,229,-2782.8,-0.007,0.081,1.0805
2025-07-16 15:21:44.386045,234,-3044.9,-0.0063,0.0812,1.0837
2025-07-16 15:21:44.486045,234,-3044.9,-0.0119,0.0856,1.0764
2025-07-16 15:21:44.586045,234,-2520.6,-0.0048,0.0788,1.0776
2025-07-16 15:21:44.673948,235,-2258.5,-0.0075,0.0827,1.08
2025-07-16 15:21:45.673999,247,-2389.6,-0.0058,0.0795,1.0825
2025-07-16 15:21:45.773999,247,-2520.6,-0.0053,0.0812,1.0839
2025-07-16 15:21:45.873999,247,-2651.7,-0.0078,0.083,1.0817
2025-07-16 15:21:46.775341,2,-2782.8,-0.0053,0.0783,1.0786
2025-07-16 15:21:46.875341,2,-2913.8,-0.0078,0.0812,1.0805
2025-07-16 15:21:46.975341,2,-2913.8,-0.0112,0.0822,1.0805
2025-07-16 15:21:47.485215,9,-2389.6,-0.0048,0.082,1.0864
2025-07-16 15:21:47.585215,9,-2389.6,-0.0051,0.0842,1.0839
2025-07-16 15:21:47.685215,9,-2520.6,-0.0053,0.0764,1.0744
2025-07-16 15:21:47.775244,12,-2651.7,-0.008,0.0815,1.082
2025-07-16 15:21:47.875244,12,-2782.8,-0.0031,0.0837,1.0859
2025-07-16 15:21:47.975244,12,-2651.7,-0.0048,0.0832,1.0852
2025-07-16 15:21:48.274495,17,-2913.8,-0.0061,0.0844,1.08
2025-07-16 15:21:48.374495,17,-2520.6,-0.0063,0.0776,1.0795
2025-07-16 15:21:48.474495,17,-2520.6,-0.0068,0.0812,1.0854
2025-07-16 15:21:50.375681,38,-3044.9,-0.0083,0.0771,1.0859
2025-07-16 15:21:50.475681,38,-2520.6,-0.0029,0.0812,1.08
2025-07-16 15:21:50.575681,38,-2651.7,-0.0102,0.0844,1.0776
2025-07-16 15:21:50.675346,39,-2913.8,-0.0095,0.0808,1.0834
2025-07-16 15:21:52.775599,62,-3044.9,-0.0156,0.0849,1.0761
2025-07-16 15:21:52.875599,62,-3044.9,-0.0083,0.083,1.0808
2025-07-16 15:21:52.975599,62,-2913.8,-0.0017,0.0761,1.0852
2025-07-16 15:21:53.374412,68,-2782.8,-0.0007,0.0832,1.0817
2025-07-16 15:21:53.474412,68,-2782.8,-0.0053,0.08,1.0861
2025-07-16 15:21:53.574412,68,-2913.8,-0.0112,0.0805,1.083
2025-07-16 15:21:54.374342,78,-3176.0,-0.0083,0.0827,1.0803
2025-07-16 15:21:54.474342,78,-3044.9,-0.0085,0.0795,1.0866
2025-07-16 15:21:54.574342,78,-3044.9,-0.0109,0.0788,1.0979
2025-07-16 15:21:55.274269,87,-2913.8,-0.0109,0.0837,1.093
2025-07-16 15:21:55.374269,87,-2782.8,-0.0078,0.0754,1.0942
2025-07-16 15:21:55.474269,87,-2782.8,-0.0021,0.0834,1.0883
2025-07-16 15:21:56.673373,101,-2782.8,-0.0078,0.0834,1.0837
2025-07-16 15:21:56.773373,101,-2913.8,-0.0051,0.0788,1.0874
2025-07-16 15:21:56.873373,101,-2913.8,-0.0043,0.0793,1.0837
2025-07-16 15:21:57.275432,107,-2913.8,-0.0051,0.0837,1.0864
2025-07-16 15:21:57.375432,107,-2913.8,-0.0087,0.0795,1.0834
2025-07-16 15:21:57.475432,107,-2913.8,-0.01,0.08,1.0834
2025-07-16 15:21:57.875247,113,-2782.8,-0.0048,0.0803,1.0876
2025-07-16 15:21:57.975247,113,-2782.8,-0.008,0.081,1.0827
2025-07-16 15:21:58.075247,113,-2782.8,-0.0104,0.0832,1.0832
2025-07-16 15:21:59.175493,126,-2520.6,-0.009,0.0839,1.0812
2025-07-16 15:21:59.275493,126,-2520.6,-0.0039,0.0812,1.0856
2025-07-16 15:21:59.375493,126,-2651.7,-0.0051,0.0822,1.0825
2025-07-16 15:22:00.574445,140,-3044.9,-0.0085,0.0815,1.0888
2025-07-16 15:22:00.674445,140,-2913.8,-0.0104,0.0795,1.09
2025-07-16 15:22:00.774445,140,-2782.8,-0.0075,0.0832,1.0861
2025-07-16 15:22:01.475334,149,-2127.4,-0.0039,0.0795,1.0876
2025-07-16 15:22:01.575334,149,-2258.5,-0.0097,0.0817,1.0891
2025-07-16 15:22:01.675334,149,-2651.7,-0.0058,0.08,1.0871
2025-07-16 15:22:03.375111,168,-2651.7,-0.0187,0.0778,1.1
2025-07-16 15:22:03.475111,168,-2389.6,-0.0068,0.0795,1.0825
2025-07-16 15:22:03.575111,168,-2651.7,-0.0078,0.0817,1.0734
2025-07-16 15:22:06.075809,195,-2520.6,-0.0075,0.0808,1.0791
2025-07-16 15:22:06.175809,195,-2651.7,-0.0034,0.0852,1.0793
2025-07-16 15:22:06.275809,195,-2520.6,-0.0051,0.0766,1.0937
2025-07-16 15:22:06.988965,204,-2913.8,-0.0056,0.0817,1.0881
2025-07-16 15:22:07.088965,204,-2782.8,-0.0075,0.0805,1.0812
2025-07-16 15:22:07.188965,204,-2913.8,-0.0144,0.0817,1.0795
2025-07-16 15:22:08.072848,215,-2913.8,-0.0192,0.0808,1.0759
2025-07-16 15:22:08.172848,215,-2651.7,-0.0048,0.0849,1.0803
2025-07-16 15:22:08.272848,215,-2782.8,0.0004,0.0832,1.08
2025-07-16 15:22:08.675995,221,-2258.5,-0.007,0.0803,1.0842
2025-07-16 15:22:08.775995,221,-2651.7,-0.0063,0.0847,1.0749
2025-07-16 15:22:08.875995,221,-3044.9,-0.0058,0.0822,1.0812
2025-07-16 15:22:09.675504,231,-2913.8,-0.007,0.0842,1.0844
2025-07-16 15:22:09.775504,231,-2782.8,-0.0095,0.081,1.0864
2025-07-16 15:22:09.875504,231,-2913.8,-0.008,0.0852,1.0812
2025-07-16 15:22:16.203651,40,-3044.9,-0.0078,0.0844,1.0761
2025-07-16 15:22:16.303651,40,-2913.8,-0.0043,0.0827,1.0783
2025-07-16 15:22:16.403651,40,-3044.9,-0.0083,0.0788,1.0798
2025-07-16 15:22:20.175542,80,-2782.8,-0.0097,0.0793,1.081
2025-07-16 15:22:20.275542,80,-2913.8,-0.0102,0.0874,1.0688
2025-07-16 15:22:20.375542,80,-2651.7,-0.0051,0.081,1.0798
2025-07-16 15:22:21.976105,98,-2651.7,-0.0075,0.0815,1.0827
2025-07-16 15:22:22.076105,98,-2520.6,-0.0056,0.0854,1.0817
2025-07-16 15:22:22.176105,98,-2782.8,-0.0058,0.0773,1.0917
2025-07-16 15:22:22.500001,103,-2389.6,-0.0065,0.0788,1.083
2025-07-16 15:22:22.600001,103,-2520.6,-0.0083,0.0815,1.0832
2025-07-16 15:22:22.700001,103,-2782.8,-0.0041,0.0839,1.0856
2025-07-16 15:22:25.173905,130,-2651.7,-0.0029,0.0791,1.082
2025-07-16 15:22:25.273905,130,-2520.6,-0.0043,0.081,1.0856
2025-07-16 15:22:25.373905,130,-2389.6,-0.0092,0.0786,1.083
2025-07-16 15:22:26.072549,139,-2520.6,-0.0061,0.0783,1.0793
2025-07-16 15:22:26.172549,139,-2389.6,-0.0087,0.0793,1.0776
2025-07-16 15:22:26.272549,139,-2520.6,-0.0085,0.0791,1.0778
2025-07-16 15:22:26.675166,145,-2389.6,-0.008,0.0791,1.0888
2025-07-16 15:22:26.775166,145,-2520.6,-0.0019,0.0781,1.0886
2025-07-16 15:22:26.875166,145,-2782.8,-0.0026,0.0786,1.0878
2025-07-16 15:22:26.975367,146,-2913.8,-0.0014,0.0788,1.0895
2025-07-16 15:22:27.872130,155,-2913.8,-0.009,0.0815,1.0822
2025-07-16 15:22:27.972130,155,-2782.8,-0.0075,0.0812,1.082
2025-07-16 15:22:28.072130,155,-2651.7,-0.0087,0.0791,1.0734
2025-07-16 15:22:27.972709,157,-2782.8,-0.0043,0.081,1.0859
2025-07-16 15:22:28.072709,157,-2651.7,-0.0104,0.0761,1.083
2025-07-16 15:22:29.393803,172,-3044.9,-0.0058,0.081,1.0834
2025-07-16 15:22:29.493803,172,-3044.9,-0.0051,0.0754,1.0866
2025-07-16 15:22:29.593803,172,-2913.8,-0.0058,0.0856,1.0849
2025-07-16 15:22:30.288197,181,-2782.8,-0.0073,0.0825,1.0827
2025-07-16 15:22:30.388197,181,-2913.8,-0.0063,0.0778,1.0822
2025-07-16 15:22:30.488197,181,-2782.8,-0.007,0.0832,1.0808
2025-07-16 15:22:30.572644,184,-2913.8,-0.0178,0.0759,1.0764
2025-07-16 15:22:30.672644,184,-2913.8,-0.0053,0.083,1.0837
2025-07-16 15:22:30.772644,184,-2782.8,-0.0043,0.0839,1.0883
2025-07-16 15:22:31.501965,193,-2651.7,-0.0058,0.0827,1.0722
2025-07-16 15:22:31.601965,193,-2651.7,-0.007,0.08,1.0832
2025-07-16 15:22:31.701965,193,-2651.7,-0.0109,0.0803,1.0825
2025-07-16 15:22:32.375224,202,-2782.8,-0.0061,0.0812,1.0903
2025-07-16 15:22:32.475224,202,-2782.8,-0.0078,0.0866,1.0825
2025-07-16 15:22:32.575224,202,-2913.8,-0.0075,0.083,1.083
2025-07-16 15:22:33.585709,214,-2389.6,-0.0048,0.0825,1.0761
2025-07-16 15:22:33.685709,214,-2782.8,-0.0124,0.083,1.0761
2025-07-16 15:22:33.785709,214,-3044.9,-0.0073,0.0834,1.0766
2025-07-16 15:22:34.473084,223,-2782.8,-0.0065,0.0837,1.0781
2025-07-16 15:22:34.573084,223,-2913.8,-0.0126,0.0815,1.0812
2025-07-16 15:22:34.673084,223,-3044.9,-0.01,0.0812,1.0876
2025-07-16 15:22:35.391887,232,-2389.6,-0.0021,0.0825,1.0866
2025-07-16 15:22:35.491887,232,-2520.6,-0.0061,0.0839,1.0788
2025-07-16 15:22:35.591887,232,-2913.8,-0.0161,0.0832,1.0729
2025-07-16 15:22:35.994541,238,-2520.6,-0.0053,0.0834,1.0834
2025-07-16 15:22:36.094541,238,-2389.6,-0.0063,0.0825,1.0847
2025-07-16 15:22:36.194541,238,-2389.6,-0.007,0.082,1.0842
2025-07-16 15:22:36.275758,239,-2389.6,-0.007,0.0847,1.081
2025-07-16 15:22:36.373515,241,-2651.7,-0.0034,0.0815,1.0844
2025-07-16 15:22:36.473515,241,-2520.6,-0.0083,0.0815,1.0827
2025-07-16 15:22:36.773217,242,-2389.6,-0.0046,0.0837,1.0759
2025-07-16 15:22:36.694544,244,-2389.6,-0.0112,0.0822,1.0759
2025-07-16 15:22:36.794544,244,-2651.7,-0.009,0.0795,1.0776
2025-07-16 15:22:36.875235,247,-2520.6,-0.0065,0.0803,1.0861
2025-07-16 15:22:36.975235,247,-2520.6,-0.0061,0.0812,1.0798
2025-07-16 15:22:37.075235,247,-2913.8,-0.0102,0.0847,1.0866
2025-07-16 15:22:38.775573,10,-3044.9,-0.0063,0.0822,1.0891
2025-07-16 15:22:38.875573,10,-3044.9,-0.0061,0.0827,1.0827
2025-07-16 15:22:38.975573,10,-3176.0,-0.009,0.081,1.0852
2025-07-16 15:22:39.273827,15,-3044.9,-0.0041,0.0815,1.0795
2025-07-16 15:22:39.373827,15,-3044.9,-0.0012,0.0788,1.0854
2025-07-16 15:22:39.473827,15,-2913.8,-0.0083,0.0832,1.081
2025-07-16 15:22:40.475721,27,-3044.9,-0.0058,0.0795,1.082
2025-07-16 15:22:40.575721,27,-2913.8,-0.0068,0.082,1.0817
2025-07-16 15:22:40.675721,27,-2782.8,-0.007,0.0805,1.0852
2025-07-16 15:22:42.571013,46,-2782.8,-0.0119,0.082,1.082
2025-07-16 15:22:42.671013,46,-3176.0,-0.0087,0.082,1.0822
2025-07-16 15:22:42.771013,46,-3044.9,-0.0068,0.08,1.0834
2025-07-16 15:22:42.674286,48,-2913.8,-0.0097,0.08,1.0832
2025-07-16 15:22:42.774286,48,-2782.8,-0.0078,0.0798,1.0803
2025-07-16 15:22:42.975519,52,-2913.8,-0.009,0.0825,1.0864
2025-07-16 15:22:43.075519,52,-3044.9,-0.0075,0.083,1.0834
2025-07-16 15:22:43.175519,52,-3176.0,-0.0026,0.0808,1.0832
2025-07-16 15:22:44.073207,63,-2782.8,-0.0061,0.0788,1.0795
2025-07-16 15:22:44.173207,63,-2782.8,-0.0051,0.08,1.0825
2025-07-16 15:22:44.273207,63,-3044.9,-0.0092,0.083,1.0856
2025-07-16 15:22:44.786148,70,-2782.8,-0.0107,0.0793,1.0886
2025-07-16 15:22:44.886148,70,-2913.8,-0.0061,0.0808,1.0842
2025-07-16 15:22:44.986148,70,-2782.8,-0.01,0.0834,1.0842
2025-07-16 15:22:45.073147,72,-2389.6,-0.0083,0.0825,1.0783
2025-07-16 15:22:45.173147,72,-2127.4,-0.0095,0.0822,1.0817
2025-07-16 15:22:45.472689,77,-2389.6,-0.0034,0.0798,1.0776
2025-07-16 15:22:45.572689,77,-2520.6,-0.0075,0.0812,1.0808
2025-07-16 15:22:45.672689,77,-2651.7,-0.0053,0.08,1.0847
2025-07-16 15:22:45.990809,81,-2389.6,-0.0026,0.0786,1.0852
2025-07-16 15:22:46.090809,81,-2389.6,-0.0085,0.0847,1.0778
2025-07-16 15:22:46.775829,90,-2913.8,-0.007,0.082,1.0874
2025-07-16 15:22:46.875829,90,-2782.8,-0.0053,0.0773,1.0849
2025-07-16 15:22:46.975829,90,-2651.7,-0.0065,0.0803,1.08
2025-07-16 15:22:47.073708,93,-2389.6,-0.0102,0.0805,1.0832
2025-07-16 15:22:47.173708,93,-2389.6,-0.0061,0.082,1.0847
2025-07-16 15:22:47.273708,93,-2520.6,-0.0085,0.0793,1.0883
2025-07-16 15:22:47.676294,99,-2389.6,-0.0061,0.0793,1.0849
2025-07-16 15:22:47.776294,99,-2520.6,-0.0078,0.0791,1.0759
2025-07-16 15:22:47.876294,99,-2520.6,-0.0065,0.0793,1.0854
2025-07-16 15:22:48.274736,105,-2651.7,-0.0134,0.0837,1.0832
2025-07-16 15:22:48.374736,105,-2782.8,-0.0051,0.0849,1.0839
2025-07-16 15:22:48.474736,105,-2520.6,-0.0041,0.0832,1.0766
2025-07-16 15:22:49.174342,114,-2258.5,-0.0021,0.082,1.0771
2025-07-16 15:22:49.274342,114,-1996.3,-0.0063,0.0849,1.0791
2025-07-16 15:22:49.374342,114,-2520.6,-0.0068,0.0798,1.0773
2025-07-16 15:22:49.486536,117,-2913.8,-0.007,0.0815,1.0917
2025-07-16 15:22:49.586536,117,-2651.7,-0.0051,0.0798,1.0803
2025-07-16 15:22:49.686536,117,-2651.7,-0.0053,0.0827,1.0776
2025-07-16 15:22:49.775595,118,-2651.7,-0.0031,0.0844,1.0876
2025-07-16 15:22:50.074537,123,-2389.6,-0.0039,0.0839,1.0815
2025-07-16 15:22:50.174537,123,-2127.4,-0.0019,0.081,1.082
2025-07-16 15:22:50.274537,123,-2389.6,-0.0085,0.0832,1.0832
2025-07-16 15:22:50.375560,126,-2651.7,-0.0124,0.082,1.0893
2025-07-16 15:22:50.475560,126,-2389.6,-0.0102,0.0803,1.0866
2025-07-16 15:22:50.575560,126,-2258.5,-0.0041,0.0766,1.0834
2025-07-16 15:22:50.699927,129,-2389.6,-0.0078,0.0827,1.0871
2025-07-16 15:22:50.799927,129,-2389.6,-0.0078,0.0812,1.0837
2025-07-16 15:22:50.899927,129,-2520.6,-0.0075,0.0771,1.0869
2025-07-16 15:22:51.605989,138,-1996.3,-0.0009,0.0854,1.0825
2025-07-16 15:22:51.705989,138,-2258.5,-0.0087,0.0839,1.082
2025-07-16 15:22:51.805989,138,-2520.6,-0.007,0.0771,1.0837
2025-07-16 15:22:52.775719,150,-2389.6,-0.0029,0.0827,1.0834
2025-07-16 15:22:52.875719,150,-2782.8,-0.0053,0.0839,1.0798
2025-07-16 15:22:52.975719,150,-2258.5,-0.0061,0.0791,1.0812
2025-07-16 15:22:53.073490,153,-2389.6,-0.0068,0.082,1.0878
2025-07-16 15:22:53.173490,153,-2520.6,-0.0021,0.0793,1.0788
2025-07-16 15:22:53.273490,153,-2520.6,-0.0056,0.0827,1.0856
2025-07-16 15:22:54.575308,168,-2651.7,-0.0034,0.0817,1.0844
2025-07-16 15:22:54.675308,168,-1996.3,-0.0041,0.0842,1.0878
2025-07-16 15:22:54.775308,168,-1996.3,-0.009,0.0798,1.0788
2025-07-16 15:22:55.784655,180,-1734.2,-0.0043,0.0795,1.0834
2025-07-16 15:22:55.884655,180,-1603.1,-0.0036,0.0812,1.0778
2025-07-16 15:22:55.984655,180,-2127.4,-0.0061,0.0776,1.0874
2025-07-16 15:22:58.181477,204,-2127.4,-0.0039,0.0825,1.0786
2025-07-16 15:22:58.281477,204,-2520.6,-0.0009,0.0834,1.09
2025-07-16 15:22:58.381477,204,-2127.4,-0.0061,0.0812,1.0764
