timestamp,packet_id,pressure,accel_x,accel_y,accel_z
2025-06-26 20:54:57.442717,123,-294.4,0.133,0.1022,1.0471
2025-06-26 20:54:57.542717,123,-163.4,0.1425,0.1,1.0415
2025-06-26 20:54:57.642717,123,98.8,0.133,0.1052,1.0253
2025-06-26 20:54:57.648105,125,98.8,0.133,0.1052,1.0253
2025-06-26 20:54:57.748105,125,-32.3,0.1396,0.1042,1.0322
2025-06-26 20:54:57.848105,125,-163.4,0.1411,0.103,1.0366
2025-06-26 20:54:59.142961,140,-163.4,0.1357,0.1064,1.0266
2025-06-26 20:54:59.242961,140,-163.4,0.1352,0.1066,1.0268
2025-06-26 20:54:59.342961,140,98.8,0.1416,0.1052,1.0222
2025-06-26 20:54:59.442459,143,229.8,0.1347,0.1059,1.0239
2025-06-26 20:54:59.542459,143,229.8,0.1354,0.1008,1.0219
2025-06-26 20:54:59.642459,143,98.8,0.1367,0.1,1.0249
2025-06-26 20:54:59.745051,146,-294.4,0.1323,0.1044,1.028
2025-06-26 20:54:59.845051,146,-32.3,0.134,0.1052,1.0314
2025-06-26 20:54:59.945051,146,360.9,0.1359,0.0996,1.0314
2025-06-26 20:55:00.088460,149,229.8,0.1384,0.1018,1.029
2025-06-26 20:55:00.188460,149,98.8,0.1374,0.1037,1.0373
2025-06-26 20:55:00.288460,149,-32.3,0.1403,0.1035,1.0307
2025-06-26 20:55:00.341373,152,-32.3,0.1347,0.1044,1.0307
2025-06-26 20:55:00.441373,152,98.8,0.1362,0.1018,1.0307
2025-06-26 20:55:00.541373,152,229.8,0.1354,0.1003,1.0302
2025-06-26 20:55:00.648301,155,98.8,0.1337,0.101,1.029
2025-06-26 20:55:00.748301,155,98.8,0.1374,0.104,1.0322
2025-06-26 20:55:00.848301,155,-163.4,0.1403,0.1054,1.0312
2025-06-26 20:55:00.985089,158,-294.4,0.1381,0.1003,1.0263
2025-06-26 20:55:01.085089,158,-32.3,0.1359,0.1057,1.0234
2025-06-26 20:55:01.185089,158,98.8,0.1413,0.0983,1.0227
2025-06-26 20:55:01.285575,161,98.8,0.132,0.1022,1.029
2025-06-26 20:55:01.385575,161,98.8,0.1401,0.1027,1.0266
2025-06-26 20:55:01.485575,161,98.8,0.1367,0.1044,1.0249
2025-06-26 20:55:01.547998,164,98.8,0.1367,0.1037,1.0258
2025-06-26 20:55:01.647998,164,98.8,0.1333,0.1018,1.0224
2025-06-26 20:55:01.747998,164,-32.3,0.1411,0.1047,1.0236
2025-06-26 20:55:01.846391,167,-163.4,0.133,0.1076,1.0327
2025-06-26 20:55:01.946391,167,-163.4,0.1301,0.1052,1.0322
2025-06-26 20:55:02.046391,167,-32.3,0.1313,0.1015,1.0339
2025-06-26 20:55:02.473083,173,98.8,0.1374,0.1032,1.0258
2025-06-26 20:55:02.573083,173,229.8,0.1403,0.1047,1.0278
2025-06-26 20:55:02.673083,173,98.8,0.1359,0.1049,1.0261
2025-06-26 20:55:02.739633,176,98.8,0.1381,0.1032,1.0302
2025-06-26 20:55:02.839633,176,98.8,0.1342,0.1035,1.0307
2025-06-26 20:55:02.939633,176,98.8,0.1364,0.1047,1.0251
2025-06-26 20:55:03.043742,179,-32.3,0.1298,0.0986,1.0283
2025-06-26 20:55:03.143742,179,-163.4,0.1335,0.1025,1.0263
2025-06-26 20:55:03.243742,179,-32.3,0.1389,0.1047,1.0268
2025-06-26 20:55:03.344048,182,98.8,0.1384,0.1054,1.0217
2025-06-26 20:55:03.444048,182,98.8,0.1345,0.0991,1.0314
2025-06-26 20:55:03.544048,182,98.8,0.1394,0.1013,1.027
2025-06-26 20:55:03.640244,185,229.8,0.1342,0.1047,1.0231
2025-06-26 20:55:03.740244,185,-32.3,0.1386,0.1013,1.0297
2025-06-26 20:55:03.840244,185,-163.4,0.134,0.1032,1.0285
2025-06-26 20:55:03.786303,186,-32.3,0.1386,0.1013,1.0297
2025-06-26 20:55:03.886303,186,-163.4,0.134,0.1032,1.0285
2025-06-26 20:55:03.986303,186,-163.4,0.1369,0.1079,1.0239
2025-06-26 20:55:03.802260,187,-163.4,0.134,0.1032,1.0285
2025-06-26 20:55:03.902260,187,-163.4,0.1369,0.1079,1.0239
2025-06-26 20:55:04.002260,187,-32.3,0.1333,0.1027,1.0327
2025-06-26 20:55:04.220669,188,-163.4,0.1369,0.1079,1.0239
2025-06-26 20:55:04.320669,188,-32.3,0.1333,0.1027,1.0327
2025-06-26 20:55:04.420669,188,360.9,0.1376,0.1081,1.0275
2025-06-26 20:55:05.299334,201,-163.4,0.1389,0.1003,1.03
2025-06-26 20:55:05.399334,201,-425.5,0.1367,0.1032,1.0273
2025-06-26 20:55:05.499334,201,-556.6,0.1345,0.1,1.0292
2025-06-26 20:55:06.039979,209,-425.5,0.1394,0.1035,1.0263
2025-06-26 20:55:06.139979,209,-556.6,0.1342,0.1032,1.0231
2025-06-26 20:55:06.239979,209,-425.5,0.1379,0.1005,1.0229
2025-06-26 20:55:06.941414,218,-163.4,0.1352,0.1052,1.0288
2025-06-26 20:55:07.041414,218,-32.3,0.1362,0.1049,1.03
2025-06-26 20:55:07.141414,218,-163.4,0.1367,0.1079,1.0275
2025-06-26 20:55:07.546623,224,-163.4,0.1462,0.0891,1.0129
2025-06-26 20:55:07.646623,224,98.8,0.0979,0.113,1.0634
2025-06-26 20:55:07.746623,224,-32.3,0.1179,0.1098,1.0358
2025-06-26 20:55:07.841054,227,98.8,0.1411,0.1098,1.0185
2025-06-26 20:55:07.941054,227,229.8,0.134,0.1142,1.0173
2025-06-26 20:55:08.041054,227,-32.3,0.1379,0.1057,1.0195
2025-06-26 20:55:08.449304,233,-163.4,0.1252,0.1098,1.0231
2025-06-26 20:55:08.549304,233,-163.4,0.1223,0.1149,1.0209
2025-06-26 20:55:08.649304,233,-163.4,0.1342,0.1137,1.0234
2025-06-26 20:55:09.047623,239,-687.7,0.0039,0.1352,1.0212
2025-06-26 20:55:09.147623,239,-556.6,0.1623,0.0571,1.1359
2025-06-26 20:55:09.247623,239,-556.6,0.0976,0.1018,1.03
2025-06-26 20:55:09.345343,242,-163.4,0.1472,0.1542,1.0561
2025-06-26 20:55:09.445343,242,98.8,0.1325,0.1384,1.0551
2025-06-26 20:55:09.545343,242,-32.3,0.153,0.1198,1.0344
2025-06-26 20:55:09.643223,245,98.8,0.1376,-0.017,0.9704
2025-06-26 20:55:09.743223,245,98.8,0.1188,0.0766,1.038
2025-06-26 20:55:09.843223,245,-32.3,0.1464,0.1511,1.0244
2025-06-26 20:55:11.444018,7,-294.4,-0.1625,0.1799,0.9758
2025-06-26 20:55:11.544018,7,-32.3,-0.1867,0.1123,0.9599
2025-06-26 20:55:11.644018,7,-163.4,-0.0593,0.0168,1.1801
2025-06-26 20:55:11.882650,11,-556.6,-0.2556,0.0141,0.8857
2025-06-26 20:55:11.982650,11,-556.6,-0.3728,-0.0563,0.9604
2025-06-26 20:55:12.082650,11,-294.4,-0.3854,-0.0419,1.0385
2025-06-26 20:55:12.050462,13,-294.4,-0.3854,-0.0419,1.0385
2025-06-26 20:55:12.150462,13,-32.3,-0.3254,0.0324,0.9018
2025-06-26 20:55:12.250462,13,-163.4,-0.3066,0.1193,0.9536
2025-06-26 20:55:12.648380,19,-163.4,-0.1735,-0.1203,1.0192
2025-06-26 20:55:12.748380,19,-425.5,-0.0771,-0.0915,1.0134
2025-06-26 20:55:12.848380,19,-425.5,-0.0842,-0.2324,1.1801
2025-06-26 20:55:12.982808,22,-294.4,0.0241,-0.0637,0.9772
2025-06-26 20:55:13.082808,22,-294.4,0.0573,-0.1364,0.7282
2025-06-26 20:55:13.182808,22,-163.4,0.2001,-0.1699,1.1296
2025-06-26 20:55:13.872667,28,-163.4,0.1723,-0.3337,1.1442
2025-06-26 20:55:13.972667,28,-294.4,0.0119,-0.2617,1.0463
2025-06-26 20:55:14.072667,28,-163.4,-0.009,-0.2768,0.9663
2025-06-26 20:55:14.147728,34,-32.3,0.1333,-0.2314,1.0053
2025-06-26 20:55:14.247728,34,-425.5,0.1508,-0.2324,0.9995
2025-06-26 20:55:14.347728,34,-163.4,0.1811,-0.1936,0.9816
2025-06-26 20:55:14.478833,37,-163.4,0.1308,-0.2204,1.0371
2025-06-26 20:55:14.578833,37,-163.4,0.1472,-0.2297,1.0175
2025-06-26 20:55:14.678833,37,98.8,0.1623,-0.2292,0.9995
2025-06-26 20:55:14.886897,41,-163.4,0.1625,-0.2248,1.0087
2025-06-26 20:55:14.986897,41,-294.4,0.1594,-0.2224,1.0117
2025-06-26 20:55:15.086897,41,-425.5,0.1713,-0.1914,1.0058
2025-06-26 20:55:14.902719,42,-294.4,0.1594,-0.2224,1.0117
2025-06-26 20:55:15.002719,42,-425.5,0.1713,-0.1914,1.0058
2025-06-26 20:55:15.102719,42,-425.5,0.1601,-0.2302,1.0124
2025-06-26 20:55:15.049096,43,-425.5,0.1713,-0.1914,1.0058
2025-06-26 20:55:15.149096,43,-425.5,0.1601,-0.2302,1.0124
2025-06-26 20:55:15.249096,43,-425.5,0.1528,-0.206,1.0122
2025-06-26 20:55:15.687868,49,-425.5,0.156,-0.2114,1.0119
2025-06-26 20:55:15.787868,49,-294.4,0.1538,-0.2133,1.0117
2025-06-26 20:55:15.887868,49,-294.4,0.1647,-0.2158,1.0095
2025-06-26 20:55:15.702094,50,-294.4,0.1538,-0.2133,1.0117
2025-06-26 20:55:15.802094,50,-294.4,0.1647,-0.2158,1.0095
2025-06-26 20:55:15.902094,50,-425.5,0.1643,-0.2109,1.0068
2025-06-26 20:55:15.947823,52,-425.5,0.1643,-0.2109,1.0068
2025-06-26 20:55:16.047823,52,-163.4,0.1533,-0.2155,1.0119
2025-06-26 20:55:16.147823,52,98.8,0.1608,-0.2116,1.0153
2025-06-26 20:55:16.548137,58,-32.3,0.1613,-0.2133,1.0107
2025-06-26 20:55:16.648137,58,-294.4,0.1604,-0.2102,1.0051
2025-06-26 20:55:16.748137,58,-163.4,0.1557,-0.2138,1.009
2025-06-26 20:55:16.847581,61,-163.4,0.1591,-0.215,1.0146
2025-06-26 20:55:16.947581,61,-294.4,0.1601,-0.2121,1.0056
2025-06-26 20:55:17.047581,61,-32.3,0.1604,-0.2109,1.0109
2025-06-26 20:55:17.292704,65,-32.3,0.1621,-0.2138,1.0073
2025-06-26 20:55:17.392704,65,-163.4,0.1599,-0.2102,1.0112
2025-06-26 20:55:17.492704,65,-294.4,0.1557,-0.2111,1.0151
2025-06-26 20:55:17.487764,67,-294.4,0.1557,-0.2111,1.0151
2025-06-26 20:55:17.587764,67,-294.4,0.1616,-0.2109,1.0161
2025-06-26 20:55:17.687764,67,-163.4,0.1572,-0.2099,1.0148
2025-06-26 20:55:17.783729,70,-32.3,0.155,-0.2109,1.0058
2025-06-26 20:55:17.883729,70,-32.3,0.1618,-0.2128,1.0056
2025-06-26 20:55:17.983729,70,-163.4,0.1604,-0.2128,1.0058
2025-06-26 20:55:18.082424,73,-294.4,0.1557,-0.2143,1.0139
2025-06-26 20:55:18.182424,73,-32.3,0.1618,-0.2131,1.0151
2025-06-26 20:55:18.282424,73,-32.3,0.1604,-0.2121,1.0148
2025-06-26 20:55:18.682562,79,-163.4,0.1579,-0.2143,1.0092
2025-06-26 20:55:18.782562,79,-294.4,0.163,-0.2089,1.0175
2025-06-26 20:55:18.882562,79,-163.4,0.1569,-0.2131,1.0141
2025-06-26 20:55:18.944990,82,-163.4,0.1606,-0.2114,1.0109
2025-06-26 20:55:19.044990,82,-163.4,0.155,-0.2089,1.009
2025-06-26 20:55:19.144990,82,-163.4,0.1638,-0.2138,1.0107
2025-06-26 20:55:19.850127,91,-32.3,0.1608,-0.2131,1.0053
2025-06-26 20:55:19.950127,91,-163.4,0.1601,-0.2116,1.0114
2025-06-26 20:55:20.050127,91,-163.4,0.1572,-0.2045,1.0078
2025-06-26 20:55:20.187697,94,-294.4,0.1516,-0.2094,1.0114
2025-06-26 20:55:20.287697,94,-294.4,0.164,-0.2131,1.008
2025-06-26 20:55:20.387697,94,-32.3,0.1557,-0.2082,1.0087
2025-06-26 20:55:20.487326,97,98.8,0.1596,-0.2126,1.0065
2025-06-26 20:55:20.587326,97,98.8,0.1589,-0.2104,1.01
2025-06-26 20:55:20.687326,97,-163.4,0.1579,-0.2133,1.0129
2025-06-26 20:55:20.792423,100,-294.4,0.1567,-0.2099,1.0112
2025-06-26 20:55:20.892423,100,-163.4,0.1625,-0.2121,1.0063
2025-06-26 20:55:20.992423,100,-294.4,0.1591,-0.2094,1.0156
2025-06-26 20:55:20.804499,101,-163.4,0.1625,-0.2121,1.0063
2025-06-26 20:55:20.904499,101,-294.4,0.1591,-0.2094,1.0156
2025-06-26 20:55:21.004499,101,-294.4,0.1577,-0.2114,1.0122
2025-06-26 20:55:21.048313,103,-294.4,0.1577,-0.2114,1.0122
2025-06-26 20:55:21.148313,103,-32.3,0.1586,-0.2116,1.0092
2025-06-26 20:55:21.248313,103,98.8,0.1579,-0.2116,1.0139
2025-06-26 20:55:21.652014,109,229.8,0.1589,-0.2102,1.0102
2025-06-26 20:55:21.752014,109,-32.3,0.1606,-0.2138,1.0075
2025-06-26 20:55:21.852014,109,-294.4,0.1594,-0.2114,1.0122
2025-06-26 20:55:21.984752,112,-294.4,0.1577,-0.2143,1.0061
2025-06-26 20:55:22.084752,112,-425.5,0.1594,-0.208,1.0095
2025-06-26 20:55:22.184752,112,-425.5,0.1594,-0.207,1.0083
2025-06-26 20:55:22.246210,115,-163.4,0.1555,-0.2109,1.0097
2025-06-26 20:55:22.346210,115,-294.4,0.164,-0.2097,1.0058
2025-06-26 20:55:22.446210,115,-294.4,0.1616,-0.2092,1.0102
2025-06-26 20:55:22.848610,121,-294.4,0.1562,-0.2104,1.007
2025-06-26 20:55:22.948610,121,-294.4,0.1601,-0.2111,1.0112
2025-06-26 20:55:23.048610,121,-294.4,0.165,-0.2124,1.0102
2025-06-26 20:55:23.150682,124,-294.4,0.1596,-0.2087,1.0112
2025-06-26 20:55:23.250682,124,-163.4,0.1611,-0.2114,1.0031
2025-06-26 20:55:23.350682,124,-294.4,0.1557,-0.2077,1.0068
2025-06-26 20:55:23.646201,129,-163.4,0.1589,-0.2131,1.0109
2025-06-26 20:55:23.746201,129,-32.3,0.1567,-0.2062,1.0139
2025-06-26 20:55:23.846201,129,360.9,0.1623,-0.2099,1.009
2025-06-26 20:55:23.803292,131,360.9,0.1623,-0.2099,1.009
2025-06-26 20:55:23.903292,131,-32.3,0.1638,-0.2106,1.0097
2025-06-26 20:55:24.003292,131,-687.7,0.1623,-0.2136,1.0083
2025-06-26 20:55:24.902254,142,-294.4,0.1594,-0.2128,1.0075
2025-06-26 20:55:25.002254,142,-294.4,0.1601,-0.2106,1.0065
2025-06-26 20:55:25.102254,142,-32.3,0.1606,-0.2133,1.0107
2025-06-26 20:55:25.252211,145,-32.3,0.1604,-0.2155,1.0107
2025-06-26 20:55:25.352211,145,-425.5,0.1591,-0.215,1.0168
2025-06-26 20:55:25.452211,145,-425.5,0.1601,-0.2109,1.0087
2025-06-26 20:55:25.581312,148,-163.4,0.1591,-0.2111,1.0119
2025-06-26 20:55:25.681312,148,-294.4,0.1608,-0.2145,1.0056
2025-06-26 20:55:25.781312,148,-556.6,0.1613,-0.2092,1.0092
2025-06-26 20:55:25.846389,151,-556.6,0.1569,-0.2121,1.0124
2025-06-26 20:55:25.946389,151,-294.4,0.163,-0.2067,1.0073
2025-06-26 20:55:26.046389,151,98.8,0.1601,-0.2094,1.0075
2025-06-26 20:55:26.148881,154,229.8,0.1567,-0.2111,1.0029
2025-06-26 20:55:26.248881,154,98.8,0.1599,-0.2121,1.009
2025-06-26 20:55:26.348881,154,-294.4,0.1582,-0.2136,1.0119
2025-06-26 20:55:26.490466,157,-294.4,0.1564,-0.2121,1.0195
2025-06-26 20:55:26.590466,157,-163.4,0.1596,-0.2109,1.007
2025-06-26 20:55:26.690466,157,-163.4,0.1586,-0.2092,1.0173
2025-06-26 20:55:26.747646,160,-32.3,0.1604,-0.2121,1.01
2025-06-26 20:55:26.847646,160,-32.3,0.1611,-0.2075,1.0109
2025-06-26 20:55:26.947646,160,-294.4,0.1582,-0.2094,1.0151
2025-06-26 20:55:27.081124,163,-294.4,0.1608,-0.2102,1.0092
2025-06-26 20:55:27.181124,163,-294.4,0.1606,-0.2089,1.0078
2025-06-26 20:55:27.281124,163,-294.4,0.1567,-0.2106,1.0173
2025-06-26 20:55:27.343797,166,-294.4,0.1582,-0.2072,1.0122
2025-06-26 20:55:27.443797,166,-163.4,0.1596,-0.2133,1.0078
2025-06-26 20:55:27.543797,166,98.8,0.1582,-0.2028,1.01
2025-06-26 20:55:27.985727,172,-425.5,0.156,-0.2065,1.0119
2025-06-26 20:55:28.085727,172,-425.5,0.163,-0.2111,1.0087
2025-06-26 20:55:28.185727,172,-163.4,0.1552,-0.2092,1.0095
2025-06-26 20:55:28.247135,175,-163.4,0.1596,-0.2111,1.0131
2025-06-26 20:55:28.347135,175,-163.4,0.1621,-0.2121,1.0161
2025-06-26 20:55:28.447135,175,-163.4,0.1628,-0.2121,1.009
2025-06-26 20:55:29.446150,187,-425.5,0.1567,-0.2089,1.0107
2025-06-26 20:55:29.546150,187,-163.4,0.1606,-0.2067,1.0122
2025-06-26 20:55:29.646150,187,-163.4,0.1562,-0.2092,1.0083
2025-06-26 20:55:29.804932,191,-163.4,0.1633,-0.2124,1.0051
2025-06-26 20:55:29.904932,191,229.8,0.1567,-0.2087,1.0104
2025-06-26 20:55:30.004932,191,98.8,0.1533,-0.2077,1.0104
2025-06-26 20:55:30.677899,197,-294.4,0.1621,-0.2148,1.0092
2025-06-26 20:55:30.777899,197,-163.4,0.1599,-0.2106,1.0075
2025-06-26 20:55:30.877899,197,-294.4,0.1562,-0.2089,1.0153
2025-06-26 20:55:30.988190,202,-294.4,0.1538,-0.2075,1.0134
2025-06-26 20:55:31.088190,202,-294.4,0.1564,-0.2124,1.0109
2025-06-26 20:55:31.188190,202,-425.5,0.1616,-0.1992,1.0151
2025-06-26 20:55:31.247519,205,-294.4,0.1582,-0.2131,1.0087
2025-06-26 20:55:31.347519,205,-32.3,0.1564,-0.2087,1.0056
2025-06-26 20:55:31.447519,205,-163.4,0.1606,-0.2158,1.0112
2025-06-26 20:55:31.544811,208,-425.5,0.1577,-0.2067,0.9997
2025-06-26 20:55:31.644811,208,-556.6,0.1557,-0.2194,1.0109
2025-06-26 20:55:31.744811,208,-32.3,0.164,-0.2048,1.0173
2025-06-26 20:55:32.172809,214,-163.4,0.1586,-0.2087,1.0095
2025-06-26 20:55:32.272809,214,98.8,0.1606,-0.2172,1.0236
2025-06-26 20:55:32.372809,214,-163.4,0.1528,-0.2048,1.0202
2025-06-26 20:55:32.449584,217,-163.4,0.1547,-0.206,1.0229
2025-06-26 20:55:32.549584,217,-163.4,0.1408,-0.2248,1.0393
2025-06-26 20:55:32.649584,217,-294.4,0.1472,-0.2048,0.9814
2025-06-26 20:55:33.047496,223,98.8,0.1286,-0.2143,1.0136
2025-06-26 20:55:33.147496,223,-32.3,0.1164,-0.2231,1.0065
2025-06-26 20:55:33.247496,223,-163.4,0.1125,-0.1862,1.0102
2025-06-26 20:55:33.348606,226,-163.4,0.1296,-0.2084,0.9985
2025-06-26 20:55:33.448606,226,-294.4,0.1601,-0.2121,0.9741
2025-06-26 20:55:33.548606,226,-163.4,0.114,-0.1821,1.1005
2025-06-26 20:55:34.139801,234,-425.5,0.1186,-0.3007,0.9692
2025-06-26 20:55:34.239801,234,-32.3,0.1018,-0.3208,0.9833
2025-06-26 20:55:34.339801,234,-32.3,0.153,-0.2495,1.0117
2025-06-26 20:55:34.885345,241,-556.6,0.144,-0.2707,0.998
2025-06-26 20:55:34.985345,241,-556.6,0.1398,-0.2609,1.0002
2025-06-26 20:55:35.085345,241,-425.5,0.153,-0.2517,1.0065
2025-06-26 20:55:35.789412,250,-32.3,0.1503,-0.2683,0.9992
2025-06-26 20:55:35.889412,250,-294.4,0.1484,-0.2595,0.9975
2025-06-26 20:55:35.989412,250,-294.4,0.1464,-0.2629,0.998
2025-06-26 20:55:36.350258,0,-32.3,0.144,-0.2612,1.0036
2025-06-26 20:55:36.450258,0,-163.4,0.1472,-0.2629,1.0014
2025-06-26 20:55:36.550258,0,-556.6,0.1477,-0.2646,1.0036
2025-06-26 20:55:37.881376,15,-163.4,0.1545,-0.2678,1.0021
2025-06-26 20:55:37.981376,15,-425.5,0.144,-0.2646,0.9909
2025-06-26 20:55:38.081376,15,-294.4,0.1489,-0.2614,1.0021
2025-06-26 20:55:38.478810,21,-294.4,0.1489,-0.2614,1.0007
2025-06-26 20:55:38.578810,21,-294.4,0.1457,-0.2631,1.0002
2025-06-26 20:55:38.678810,21,-294.4,0.1423,-0.2624,0.9931
2025-06-26 20:55:38.749543,24,-163.4,0.1501,-0.2624,1.0041
2025-06-26 20:55:38.849543,24,-163.4,0.1477,-0.268,1.0024
2025-06-26 20:55:38.949543,24,-163.4,0.1433,-0.2673,0.9975
2025-06-26 20:55:39.382103,30,-163.4,0.1484,-0.2631,1.0061
2025-06-26 20:55:39.482103,30,-294.4,0.1442,-0.2651,1.0024
2025-06-26 20:55:39.582103,30,-163.4,0.1508,-0.2656,0.9956
2025-06-26 20:55:39.685950,33,-294.4,0.1496,-0.2673,1.0051
2025-06-26 20:55:39.785950,33,-294.4,0.1469,-0.2607,0.9958
2025-06-26 20:55:39.885950,33,-294.4,0.1452,-0.268,0.9978
2025-06-26 20:55:40.004728,37,-294.4,0.1367,-0.2639,1.0007
2025-06-26 20:55:40.104728,37,-163.4,0.1496,-0.2629,0.9902
2025-06-26 20:55:40.204728,37,-163.4,0.1467,-0.2666,0.9951
2025-06-26 20:55:41.202087,49,-32.3,0.1425,-0.2685,1.0004
2025-06-26 20:55:41.302087,49,98.8,0.1445,-0.2646,0.9987
2025-06-26 20:55:41.402087,49,-163.4,0.1445,-0.2656,0.9929
2025-06-26 20:55:41.491572,51,-163.4,0.1445,-0.2656,0.9929
2025-06-26 20:55:41.591572,51,-294.4,0.1452,-0.2651,0.9992
2025-06-26 20:55:41.691572,51,-163.4,0.1494,-0.27,1.0
2025-06-26 20:55:41.503132,52,-294.4,0.1452,-0.2651,0.9992
2025-06-26 20:55:41.603132,52,-163.4,0.1494,-0.27,1.0
2025-06-26 20:55:41.703132,52,-294.4,0.1513,-0.2668,0.9946
2025-06-26 20:55:41.784736,54,-294.4,0.1513,-0.2668,0.9946
2025-06-26 20:55:41.884736,54,-163.4,0.1457,-0.2668,1.0053
2025-06-26 20:55:41.984736,54,98.8,0.1433,-0.2668,0.9912
2025-06-26 20:55:42.677765,60,-163.4,0.1501,-0.2636,0.9956
2025-06-26 20:55:42.777765,60,-163.4,0.1518,-0.2619,0.9965
2025-06-26 20:55:42.877765,60,-294.4,0.1474,-0.2685,1.0002
2025-06-26 20:55:43.283583,69,-32.3,0.1494,-0.2668,1.0026
2025-06-26 20:55:43.383583,69,-32.3,0.1447,-0.26,0.9948
2025-06-26 20:55:43.483583,69,-32.3,0.1457,-0.2622,1.0
2025-06-26 20:55:44.183904,78,-32.3,0.1452,-0.2663,0.998
2025-06-26 20:55:44.283904,78,-32.3,0.1464,-0.2673,1.0061
2025-06-26 20:55:44.383904,78,-32.3,0.1484,-0.2644,1.0034
2025-06-26 20:55:44.779998,84,-163.4,0.1428,-0.2641,0.9975
2025-06-26 20:55:44.879998,84,-425.5,0.1479,-0.2668,0.9931
2025-06-26 20:55:44.979998,84,-163.4,0.1474,-0.2648,1.0043
2025-06-26 20:55:45.002001,87,-32.3,0.1501,-0.2626,1.0046
2025-06-26 20:55:45.102001,87,-294.4,0.1467,-0.2663,0.998
2025-06-26 20:55:45.202001,87,-163.4,0.1442,-0.2641,1.0041
2025-06-26 20:55:45.342616,90,-425.5,0.142,-0.2749,0.9902
2025-06-26 20:55:45.442616,90,-556.6,0.1494,-0.2646,0.9987
2025-06-26 20:55:45.542616,90,-294.4,0.1437,-0.2641,0.9968
2025-06-26 20:55:45.645473,93,-163.4,0.1464,-0.2685,1.0009
2025-06-26 20:55:45.745473,93,-163.4,0.1459,-0.2646,0.996
2025-06-26 20:55:45.845473,93,-294.4,0.1503,-0.2651,0.9929
2025-06-26 20:55:46.250429,99,-32.3,0.1479,-0.2687,1.0053
2025-06-26 20:55:46.350429,99,-163.4,0.1477,-0.2651,0.9975
2025-06-26 20:55:46.450429,99,-294.4,0.1459,-0.2629,1.0014
2025-06-26 20:55:46.546294,102,-294.4,0.1472,-0.2651,1.0
2025-06-26 20:55:46.646294,102,-425.5,0.145,-0.2636,1.0065
2025-06-26 20:55:46.746294,102,-687.7,0.1499,-0.2626,1.0004
2025-06-26 20:55:47.151044,108,-32.3,0.1437,-0.2656,0.9992
2025-06-26 20:55:47.251044,108,-32.3,0.1491,-0.267,0.9968
2025-06-26 20:55:47.351044,108,-32.3,0.1455,-0.2636,0.998
2025-06-26 20:55:47.446375,111,-294.4,0.1496,-0.2641,1.0019
2025-06-26 20:55:47.546375,111,-556.6,0.1506,-0.2658,0.9941
2025-06-26 20:55:47.646375,111,-556.6,0.1435,-0.2617,1.0007
2025-06-26 20:55:47.601984,113,-556.6,0.1435,-0.2617,1.0007
2025-06-26 20:55:47.701984,113,-294.4,0.1501,-0.2692,0.997
2025-06-26 20:55:47.801984,113,-425.5,0.1516,-0.2644,0.9992
2025-06-26 20:55:47.745689,114,-294.4,0.1501,-0.2692,0.997
2025-06-26 20:55:47.845689,114,-425.5,0.1516,-0.2644,0.9992
2025-06-26 20:55:47.945689,114,-556.6,0.145,-0.2622,0.9992
2025-06-26 20:55:48.045483,117,-425.5,0.1464,-0.2683,1.0026
2025-06-26 20:55:48.145483,117,-294.4,0.1428,-0.2644,0.9958
2025-06-26 20:55:48.245483,117,-163.4,0.1459,-0.2666,1.0009
2025-06-26 20:55:48.348936,120,-294.4,0.1457,-0.2646,1.0046
2025-06-26 20:55:48.448936,120,-294.4,0.1472,-0.2644,1.0
2025-06-26 20:55:48.548936,120,-32.3,0.1469,-0.2646,0.9975
2025-06-26 20:55:48.648594,123,98.8,0.1503,-0.27,1.0
2025-06-26 20:55:48.748594,123,98.8,0.1472,-0.2614,0.9982
2025-06-26 20:55:48.848594,123,98.8,0.1459,-0.2634,1.0061
2025-06-26 20:55:48.995428,126,229.8,0.1484,-0.2666,0.9975
2025-06-26 20:55:49.095428,126,98.8,0.155,-0.2673,1.0017
2025-06-26 20:55:49.195428,126,-294.4,0.1464,-0.2604,1.0009
2025-06-26 20:55:49.246311,129,-425.5,0.1467,-0.2712,1.0009
2025-06-26 20:55:49.346311,129,-163.4,0.1433,-0.2644,1.0056
2025-06-26 20:55:49.446311,129,-163.4,0.1416,-0.2653,0.9992
2025-06-26 20:55:49.548137,132,-163.4,0.1484,-0.268,0.9973
2025-06-26 20:55:49.648137,132,-163.4,0.144,-0.2658,1.0019
2025-06-26 20:55:49.748137,132,-163.4,0.144,-0.2612,1.0019
2025-06-26 20:55:49.849367,135,98.8,0.1477,-0.2687,1.0
2025-06-26 20:55:49.949367,135,-32.3,0.1499,-0.2644,0.9968
2025-06-26 20:55:50.049367,135,-294.4,0.1398,-0.267,0.998
2025-06-26 20:55:50.148425,138,-425.5,0.1491,-0.2687,1.0017
2025-06-26 20:55:50.248425,138,-294.4,0.1442,-0.2622,0.998
2025-06-26 20:55:50.348425,138,-163.4,0.1472,-0.2619,1.0019
2025-06-26 20:55:50.445391,141,-163.4,0.1423,-0.2695,0.9943
2025-06-26 20:55:50.545391,141,98.8,0.1462,-0.267,0.9997
2025-06-26 20:55:50.645391,141,229.8,0.1442,-0.2648,1.0061
2025-06-26 20:55:50.744092,144,-294.4,0.1406,-0.2675,0.9978
2025-06-26 20:55:50.844092,144,-163.4,0.1518,-0.2644,1.0056
2025-06-26 20:55:50.944092,144,-163.4,0.1486,-0.2646,1.0017
2025-06-26 20:55:51.042842,147,-294.4,0.1491,-0.268,0.9958
2025-06-26 20:55:51.142842,147,-163.4,0.1477,-0.2622,0.9941
2025-06-26 20:55:51.242842,147,-163.4,0.1474,-0.2719,1.0002
2025-06-26 20:55:51.645614,153,-32.3,0.1484,-0.2702,1.0
2025-06-26 20:55:51.745614,153,-32.3,0.1462,-0.2641,0.9973
2025-06-26 20:55:51.845614,153,-294.4,0.1464,-0.2685,0.9987
2025-06-26 20:55:52.242077,159,-425.5,0.1452,-0.2668,1.0065
2025-06-26 20:55:52.342077,159,-425.5,0.1455,-0.2687,0.9992
2025-06-26 20:55:52.442077,159,-294.4,0.142,-0.2673,0.9992
2025-06-26 20:55:52.401986,161,-294.4,0.142,-0.2673,0.9992
2025-06-26 20:55:52.501986,161,-32.3,0.1511,-0.2651,1.0012
2025-06-26 20:55:52.601986,161,-163.4,0.1535,-0.269,0.9995
2025-06-26 20:55:52.547080,162,-32.3,0.1511,-0.2651,1.0012
2025-06-26 20:55:52.647080,162,-163.4,0.1535,-0.269,0.9995
2025-06-26 20:55:52.747080,162,-163.4,0.1459,-0.2675,0.999
2025-06-26 20:55:53.145803,168,-294.4,0.1479,-0.2661,0.9995
2025-06-26 20:55:53.245803,168,-425.5,0.1523,-0.2624,0.9965
2025-06-26 20:55:53.345803,168,-294.4,0.1442,-0.2685,0.996
2025-06-26 20:55:54.344148,180,-294.4,0.1479,-0.27,0.9902
2025-06-26 20:55:54.444148,180,-32.3,0.1479,-0.2639,1.0
2025-06-26 20:55:54.544148,180,-32.3,0.1457,-0.2602,0.9975
2025-06-26 20:55:54.605512,183,98.8,0.1508,-0.2663,1.0029
2025-06-26 20:55:54.705512,183,229.8,0.1479,-0.2612,0.9978
2025-06-26 20:55:54.805512,183,98.8,0.1491,-0.2646,0.9995
2025-06-26 20:55:54.881741,185,98.8,0.1491,-0.2646,0.9995
2025-06-26 20:55:54.981741,185,-163.4,0.1477,-0.2678,0.9995
2025-06-26 20:55:55.081741,185,-425.5,0.1489,-0.2622,0.9956
2025-06-26 20:55:54.901947,186,-163.4,0.1477,-0.2678,0.9995
2025-06-26 20:55:55.001947,186,-425.5,0.1489,-0.2622,0.9956
2025-06-26 20:55:55.101947,186,-294.4,0.1513,-0.2675,0.9941
2025-06-26 20:55:55.246697,189,98.8,0.1474,-0.2668,1.0026
2025-06-26 20:55:55.346697,189,-32.3,0.1484,-0.2622,0.9982
2025-06-26 20:55:55.446697,189,98.8,0.1464,-0.2673,1.0034
2025-06-26 20:55:55.586190,192,98.8,0.1472,-0.2641,0.9953
2025-06-26 20:55:55.686190,192,-163.4,0.1442,-0.2656,0.9912
2025-06-26 20:55:55.786190,192,-163.4,0.1499,-0.2658,1.0009
2025-06-26 20:55:56.185401,198,-163.4,0.1455,-0.2658,0.9975
2025-06-26 20:55:56.285401,198,-163.4,0.1433,-0.2602,1.0024
2025-06-26 20:55:56.385401,198,-163.4,0.1481,-0.2661,0.9987
2025-06-26 20:55:56.448849,201,-163.4,0.1513,-0.2636,0.9958
2025-06-26 20:55:56.548849,201,-32.3,0.1423,-0.267,0.9965
2025-06-26 20:55:56.648849,201,-32.3,0.1484,-0.267,0.9968
2025-06-26 20:55:57.085006,207,-425.5,0.1481,-0.2653,0.9931
2025-06-26 20:55:57.185006,207,98.8,0.1479,-0.2661,0.9987
2025-06-26 20:55:57.285006,207,-163.4,0.1486,-0.2641,0.9929
2025-06-26 20:55:57.443237,211,-32.3,0.1503,-0.268,1.0
2025-06-26 20:55:57.543237,211,-163.4,0.1501,-0.2673,0.9951
2025-06-26 20:55:57.643237,211,-163.4,0.1457,-0.26,1.0041
2025-06-26 20:55:57.950069,216,-294.4,0.1464,-0.2607,1.0009
2025-06-26 20:55:58.050069,216,-294.4,0.1481,-0.2685,0.997
2025-06-26 20:55:58.150069,216,-163.4,0.1479,-0.2673,0.9951
2025-06-26 20:55:58.278231,219,-294.4,0.1479,-0.2666,0.9882
2025-06-26 20:55:58.378231,219,-294.4,0.1494,-0.269,0.9965
2025-06-26 20:55:58.478231,219,-32.3,0.1528,-0.2683,1.0007
2025-06-26 20:55:58.847722,225,98.8,0.1416,-0.2675,0.9992
2025-06-26 20:55:58.947722,225,-294.4,0.1455,-0.2641,0.9897
2025-06-26 20:55:59.047722,225,-294.4,0.1445,-0.267,1.0048
2025-06-26 20:55:59.145763,228,-163.4,0.1477,-0.2653,0.9929
2025-06-26 20:55:59.245763,228,-294.4,0.1518,-0.2673,1.0024
2025-06-26 20:55:59.345763,228,-294.4,0.1479,-0.2641,0.9997
2025-06-26 20:55:59.752413,234,-32.3,0.1455,-0.2646,0.996
2025-06-26 20:55:59.852413,234,-163.4,0.1538,-0.2634,0.9965
2025-06-26 20:55:59.952413,234,-294.4,0.1484,-0.2595,0.9921
2025-06-26 20:56:01.350541,250,98.8,0.1489,-0.2651,0.9965
2025-06-26 20:56:01.450541,250,98.8,0.1423,-0.2648,1.0039
2025-06-26 20:56:01.550541,250,98.8,0.1474,-0.2644,1.0012
2025-06-26 20:56:01.884717,255,-163.4,0.1516,-0.2634,1.0026
2025-06-26 20:56:01.984717,255,-32.3,0.1538,-0.2646,0.9924
2025-06-26 20:56:02.084717,255,98.8,0.1508,-0.2661,1.0004
2025-06-26 20:56:02.148881,2,229.8,0.1508,-0.2648,0.9987
2025-06-26 20:56:02.248881,2,-32.3,0.152,-0.2646,0.9958
2025-06-26 20:56:02.348881,2,-32.3,0.1455,-0.2592,0.9929
2025-06-26 20:56:02.451391,5,98.8,0.1447,-0.2619,0.996
2025-06-26 20:56:02.551391,5,-32.3,0.1489,-0.2661,1.0039
2025-06-26 20:56:02.651391,5,-32.3,0.1506,-0.268,0.9975
2025-06-26 20:56:02.784331,8,-32.3,0.1464,-0.2641,1.0009
2025-06-26 20:56:02.884331,8,-294.4,0.1501,-0.269,1.0007
2025-06-26 20:56:02.984331,8,-294.4,0.1501,-0.2641,0.9992
2025-06-26 20:56:03.047983,11,98.8,0.1435,-0.2663,1.0031
2025-06-26 20:56:03.147983,11,-32.3,0.1491,-0.2641,0.9973
2025-06-26 20:56:03.247983,11,-556.6,0.1479,-0.2695,1.0002
2025-06-26 20:56:03.348401,14,-294.4,0.1489,-0.2636,0.9956
2025-06-26 20:56:03.448401,14,-32.3,0.1496,-0.2653,1.0024
2025-06-26 20:56:03.548401,14,-163.4,0.1494,-0.2626,0.9997
2025-06-26 20:56:03.684291,17,-425.5,0.1467,-0.2673,1.0058
2025-06-26 20:56:03.784291,17,-294.4,0.154,-0.2646,0.9958
2025-06-26 20:56:03.884291,17,-32.3,0.1479,-0.2629,1.0046
2025-06-26 20:56:04.579244,26,-163.4,0.1433,-0.2607,0.9982
2025-06-26 20:56:04.679244,26,-163.4,0.1518,-0.2687,0.9924
2025-06-26 20:56:04.779244,26,-32.3,0.1472,-0.2631,0.9975
2025-06-26 20:56:05.290100,33,229.8,0.1533,-0.2673,0.9914
2025-06-26 20:56:05.390100,33,229.8,0.1508,-0.259,1.0007
2025-06-26 20:56:05.490100,33,-163.4,0.1489,-0.2653,0.9951
2025-06-26 20:56:05.302779,34,229.8,0.1508,-0.259,1.0007
2025-06-26 20:56:05.402779,34,-163.4,0.1489,-0.2653,0.9951
2025-06-26 20:56:05.502779,34,98.8,0.1481,-0.2656,0.9958
2025-06-26 20:56:06.088981,41,-32.3,0.1489,-0.2687,1.0004
2025-06-26 20:56:06.188981,41,98.8,0.1479,-0.267,0.9992
2025-06-26 20:56:06.288981,41,-163.4,0.1486,-0.2673,1.0009
2025-06-26 20:56:06.349519,44,-294.4,0.1496,-0.2648,1.0026
2025-06-26 20:56:06.449519,44,-163.4,0.1496,-0.2658,0.9978
2025-06-26 20:56:06.549519,44,-294.4,0.1508,-0.2648,1.0002
2025-06-26 20:56:06.650561,47,-32.3,0.1462,-0.2644,0.9982
2025-06-26 20:56:06.750561,47,98.8,0.1479,-0.2639,0.9963
2025-06-26 20:56:06.850561,47,98.8,0.1455,-0.2668,1.0017
2025-06-26 20:56:07.704984,58,-163.4,0.1484,-0.2695,1.0014
2025-06-26 20:56:07.804984,58,-32.3,0.1506,-0.269,0.9943
2025-06-26 20:56:07.904984,58,98.8,0.1499,-0.2666,1.0002
2025-06-26 20:56:07.887480,59,-32.3,0.1506,-0.269,0.9943
2025-06-26 20:56:07.987480,59,98.8,0.1499,-0.2666,1.0002
2025-06-26 20:56:08.087480,59,-163.4,0.1474,-0.2673,1.0
2025-06-26 20:56:08.466805,65,98.8,0.1501,-0.2678,0.9965
2025-06-26 20:56:08.566805,65,229.8,0.1484,-0.2639,0.9995
2025-06-26 20:56:08.666805,65,229.8,0.1479,-0.2624,0.999
2025-06-26 20:56:09.050688,71,-294.4,0.1535,-0.2666,0.9951
2025-06-26 20:56:09.150688,71,-294.4,0.1472,-0.2663,0.9992
2025-06-26 20:56:09.250688,71,-163.4,0.1455,-0.2692,1.0026
2025-06-26 20:56:09.691762,77,98.8,0.1494,-0.2675,1.0051
2025-06-26 20:56:09.791762,77,98.8,0.1533,-0.2678,0.9985
2025-06-26 20:56:09.891762,77,-294.4,0.1501,-0.2678,0.9956
2025-06-26 20:56:09.978763,80,-687.7,0.1501,-0.2651,0.9975
2025-06-26 20:56:10.078763,80,-556.6,0.1472,-0.2651,1.0024
2025-06-26 20:56:10.178763,80,-163.4,0.1484,-0.2631,1.0024
2025-06-26 20:56:11.152169,92,98.8,0.1462,-0.2607,1.0026
2025-06-26 20:56:11.252169,92,-32.3,0.1474,-0.2648,0.9985
2025-06-26 20:56:11.352169,92,-425.5,0.1499,-0.2658,0.9958
2025-06-26 20:56:11.485310,95,-294.4,0.1525,-0.2668,1.0031
2025-06-26 20:56:11.585310,95,-32.3,0.1503,-0.2631,0.9985
2025-06-26 20:56:11.685310,95,-294.4,0.1508,-0.2707,1.0009
2025-06-26 20:56:11.786398,98,-294.4,0.1464,-0.2595,0.9997
2025-06-26 20:56:11.886398,98,-425.5,0.1469,-0.2692,0.9973
2025-06-26 20:56:11.986398,98,-556.6,0.1491,-0.2644,1.0009
2025-06-26 20:56:11.803615,99,-425.5,0.1469,-0.2692,0.9973
2025-06-26 20:56:11.903615,99,-556.6,0.1491,-0.2644,1.0009
2025-06-26 20:56:12.003615,99,-163.4,0.145,-0.2656,1.0007
2025-06-26 20:56:12.588215,106,-425.5,0.1467,-0.2636,0.9916
2025-06-26 20:56:12.688215,106,-294.4,0.1503,-0.2658,0.9965
2025-06-26 20:56:12.788215,106,-32.3,0.1455,-0.2622,0.9965
2025-06-26 20:56:12.643159,107,-294.4,0.1503,-0.2658,0.9965
2025-06-26 20:56:12.743159,107,-32.3,0.1455,-0.2622,0.9965
2025-06-26 20:56:12.843159,107,-163.4,0.1503,-0.2687,0.9953
2025-06-26 20:56:12.947993,110,-425.5,0.1518,-0.2646,0.9975
2025-06-26 20:56:13.047993,110,-294.4,0.1445,-0.2653,0.999
2025-06-26 20:56:13.147993,110,98.8,0.1491,-0.2683,0.9995
2025-06-26 20:56:13.543568,116,-163.4,0.1457,-0.2648,0.9968
2025-06-26 20:56:13.643568,116,-163.4,0.1491,-0.2653,1.0039
2025-06-26 20:56:13.743568,116,-294.4,0.1513,-0.2656,0.9921
2025-06-26 20:56:14.177951,122,-556.6,0.1445,-0.2656,1.0061
2025-06-26 20:56:14.277951,122,-687.7,0.1452,-0.2641,1.0017
2025-06-26 20:56:14.377951,122,-294.4,0.1459,-0.267,1.0053
2025-06-26 20:56:14.448716,125,-32.3,0.1469,-0.2636,1.0021
2025-06-26 20:56:14.548716,125,-294.4,0.1455,-0.2666,1.0014
2025-06-26 20:56:14.648716,125,-425.5,0.1545,-0.2634,1.008
2025-06-26 20:56:14.744833,128,-425.5,0.1462,-0.2641,0.9943
2025-06-26 20:56:14.844833,128,-163.4,0.1486,-0.2636,0.9982
2025-06-26 20:56:14.944833,128,-32.3,0.1506,-0.268,0.9973
2025-06-26 20:56:15.082657,131,-294.4,0.1479,-0.2646,1.0034
2025-06-26 20:56:15.182657,131,-556.6,0.1508,-0.2653,0.9997
2025-06-26 20:56:15.282657,131,-425.5,0.1477,-0.2602,0.9904
2025-06-26 20:56:15.688476,137,-32.3,0.1486,-0.26,0.9956
2025-06-26 20:56:15.788476,137,229.8,0.1508,-0.2673,0.9985
2025-06-26 20:56:15.888476,137,98.8,0.1474,-0.2626,0.9987
2025-06-26 20:56:15.950990,140,-32.3,0.144,-0.2683,1.0031
2025-06-26 20:56:16.050990,140,98.8,0.1491,-0.2663,0.9968
2025-06-26 20:56:16.150990,140,98.8,0.1428,-0.2678,0.9975
2025-06-26 20:56:16.249075,141,98.8,0.1491,-0.2663,0.9968
2025-06-26 20:56:16.349075,141,98.8,0.1428,-0.2678,0.9975
2025-06-26 20:56:16.449075,141,-163.4,0.1467,-0.2634,0.997
2025-06-26 20:56:16.249594,143,-163.4,0.1467,-0.2634,0.997
2025-06-26 20:56:16.349594,143,-32.3,0.1486,-0.2695,0.9997
2025-06-26 20:56:16.449594,143,-32.3,0.1491,-0.258,0.9912
2025-06-26 20:56:16.887501,149,-163.4,0.1484,-0.2731,0.999
2025-06-26 20:56:16.987501,149,-163.4,0.1496,-0.2634,0.9938
2025-06-26 20:56:17.087501,149,-163.4,0.1423,-0.2658,0.9931
2025-06-26 20:56:17.487650,155,-32.3,0.1494,-0.2639,0.9963
2025-06-26 20:56:17.587650,155,-294.4,0.1518,-0.2629,1.0053
2025-06-26 20:56:17.687650,155,-425.5,0.1437,-0.2683,1.0004
2025-06-26 20:56:18.402158,165,-32.3,0.1179,-0.2734,0.9843
2025-06-26 20:56:18.502158,165,229.8,0.1171,-0.2624,1.0124
2025-06-26 20:56:18.602158,165,98.8,0.1135,-0.2734,1.01
2025-06-26 20:56:18.982031,170,-32.3,0.2058,-0.1413,0.9804
2025-06-26 20:56:19.082031,170,-32.3,0.1838,-0.0212,1.0185
2025-06-26 20:56:19.182031,170,229.8,0.1477,-0.2648,1.0458
2025-06-26 20:56:19.286609,173,98.8,0.155,-0.2895,1.0046
2025-06-26 20:56:19.386609,173,-294.4,0.2009,-0.2463,0.9721
2025-06-26 20:56:19.486609,173,-294.4,0.1765,-0.2526,1.0158
2025-06-26 20:56:19.586190,176,-163.4,0.0942,-0.2705,0.9841
2025-06-26 20:56:19.686190,176,-163.4,0.1103,-0.2077,0.9516
2025-06-26 20:56:19.786190,176,98.8,0.039,-0.385,1.1398
2025-06-26 20:56:19.849895,179,-32.3,0.0278,-0.2893,1.0737
2025-06-26 20:56:19.949895,179,-32.3,-0.0683,-0.2497,1.1513
2025-06-26 20:56:20.049895,179,-32.3,-0.6113,-0.3537,1.75
2025-06-26 20:56:20.186964,182,-32.3,-0.4082,-0.2092,0.8833
2025-06-26 20:56:20.286964,182,-163.4,-0.4348,-0.0366,0.9526
2025-06-26 20:56:20.386964,182,-32.3,-0.3068,-0.0864,1.1081
2025-06-26 20:56:20.485922,185,-32.3,0.0625,0.343,0.8901
2025-06-26 20:56:20.585922,185,-163.4,-0.384,0.205,0.6298
2025-06-26 20:56:20.685922,185,-32.3,-0.1831,0.1037,0.9907
2025-06-26 20:56:20.752521,188,-163.4,-0.217,-0.0161,1.0036
2025-06-26 20:56:20.852521,188,-425.5,-0.1755,-0.0588,1.0437
2025-06-26 20:56:20.952521,188,-294.4,-0.1086,-0.0468,0.976
2025-06-26 20:56:21.652145,197,-163.4,0.0832,-0.0661,1.0742
2025-06-26 20:56:21.752145,197,-294.4,0.1269,-0.0231,1.0622
2025-06-26 20:56:21.852145,197,-294.4,-0.0112,0.0576,1.0578
2025-06-26 20:56:21.989156,200,-32.3,0.0805,-0.0495,1.0307
2025-06-26 20:56:22.089156,200,-163.4,0.0798,-0.081,1.008
2025-06-26 20:56:22.189156,200,-163.4,0.0236,0.0258,1.0412
2025-06-26 20:56:22.883403,209,-163.4,0.0664,-0.0134,1.0278
2025-06-26 20:56:22.983403,209,-163.4,0.1147,-0.0383,0.9843
2025-06-26 20:56:23.083403,209,-163.4,0.1013,-0.05,0.9709
2025-06-26 20:56:23.151450,212,-556.6,0.0629,-0.0324,1.0332
2025-06-26 20:56:23.251450,212,-556.6,0.0864,-0.027,1.0576
2025-06-26 20:56:23.351450,212,-687.7,0.0249,-0.06,1.0637
2025-06-26 20:56:24.384879,224,-32.3,0.0668,-0.0263,1.0502
2025-06-26 20:56:24.484879,224,-32.3,0.082,-0.0317,1.0397
2025-06-26 20:56:24.584879,224,-163.4,0.0856,-0.0456,1.0468
2025-06-26 20:56:24.895050,229,-163.4,0.0712,-0.0305,1.0478
2025-06-26 20:56:24.995050,229,-163.4,0.0854,-0.0397,1.0317
2025-06-26 20:56:25.095050,229,-294.4,0.0898,-0.0383,1.0268
2025-06-26 20:56:24.902349,230,-163.4,0.0854,-0.0397,1.0317
2025-06-26 20:56:25.002349,230,-294.4,0.0898,-0.0383,1.0268
2025-06-26 20:56:25.102349,230,-163.4,0.0842,-0.0378,1.0275
2025-06-26 20:56:26.112339,239,-163.4,0.0976,-0.0456,1.0097
2025-06-26 20:56:26.212339,239,-556.6,0.0812,-0.0212,1.0532
2025-06-26 20:56:26.312339,239,-425.5,0.0861,-0.0261,1.0324
2025-06-26 20:56:27.643979,1,-294.4,0.092,0.0068,1.0397
2025-06-26 20:56:27.743979,1,-425.5,0.0939,0.0095,1.0366
2025-06-26 20:56:27.843979,1,-163.4,0.103,0.0024,1.0349
2025-06-26 20:56:28.247260,7,-163.4,0.112,0.0144,1.3
2025-06-26 20:56:28.347260,7,98.8,0.028,-0.0029,1.0354
2025-06-26 20:56:28.447260,7,98.8,0.0195,-0.0058,1.0444
2025-06-26 20:56:29.143114,16,-556.6,0.0253,-0.0126,1.0346
2025-06-26 20:56:29.243114,16,-294.4,0.0217,-0.0222,1.0305
2025-06-26 20:56:29.343114,16,98.8,0.0278,-0.0187,1.0319
2025-06-26 20:56:29.744801,22,-294.4,0.0214,-0.008,1.0402
2025-06-26 20:56:29.844801,22,-294.4,0.027,-0.0092,1.0378
2025-06-26 20:56:29.944801,22,-32.3,0.0219,-0.0129,1.041
2025-06-26 20:56:30.040055,25,-32.3,0.0258,-0.0048,1.0517
2025-06-26 20:56:30.140055,25,-425.5,0.0239,0.0043,1.038
2025-06-26 20:56:30.240055,25,-163.4,0.0187,-0.0041,1.0439
2025-06-26 20:56:30.645917,31,-163.4,0.0219,-0.0073,1.0488
2025-06-26 20:56:30.745917,31,-163.4,0.0183,-0.0083,1.0378
2025-06-26 20:56:30.845917,31,-425.5,0.0195,-0.0092,1.0422
2025-06-26 20:56:31.546664,40,-294.4,0.0827,-0.0153,1.0141
2025-06-26 20:56:31.646664,40,-163.4,0.0622,-0.0024,1.0566
2025-06-26 20:56:31.746664,40,-163.4,0.093,-0.0002,1.0339
2025-06-26 20:56:32.421235,48,-32.3,0.029,-0.0129,1.0476
2025-06-26 20:56:32.521235,48,-32.3,0.0253,-0.0122,1.0415
2025-06-26 20:56:32.621235,48,-32.3,0.0239,0.0012,1.0449
2025-06-26 20:56:32.489968,49,-32.3,0.0253,-0.0122,1.0415
2025-06-26 20:56:32.589968,49,-32.3,0.0239,0.0012,1.0449
2025-06-26 20:56:32.689968,49,-163.4,0.018,0.0029,1.0493
2025-06-26 20:56:33.046980,55,-425.5,0.03,-0.0119,1.038
2025-06-26 20:56:33.146980,55,-163.4,0.0305,-0.0036,1.0402
2025-06-26 20:56:33.246980,55,-163.4,0.0234,-0.0065,1.0427
2025-06-26 20:56:33.664030,61,-163.4,0.03,-0.0068,1.0388
2025-06-26 20:56:33.764030,61,-163.4,0.029,-0.0146,1.0314
2025-06-26 20:56:33.864030,61,-32.3,0.0224,-0.0219,1.0366
2025-06-26 20:56:34.249377,67,-163.4,0.0205,-0.0009,1.0344
2025-06-26 20:56:34.349377,67,-425.5,0.2514,0.2111,1.0471
2025-06-26 20:56:34.449377,67,-556.6,0.0297,-0.0129,1.0427
2025-06-26 20:56:34.551168,70,-425.5,0.027,-0.017,1.0388
2025-06-26 20:56:34.651168,70,-425.5,0.0258,-0.01,1.0385
2025-06-26 20:56:34.751168,70,-294.4,0.0217,-0.0043,1.0498
2025-06-26 20:56:34.894570,73,-294.4,0.0234,-0.0063,1.0407
2025-06-26 20:56:34.994570,73,-556.6,0.0234,-0.0126,1.0358
2025-06-26 20:56:35.094570,73,-163.4,0.0268,-0.0156,1.0395
2025-06-26 20:56:35.147241,76,98.8,0.0275,-0.0097,1.0402
2025-06-26 20:56:35.247241,76,-163.4,0.0227,-0.0014,1.0498
2025-06-26 20:56:35.347241,76,-32.3,0.018,0.0007,1.0388
2025-06-26 20:56:35.741140,82,-163.4,0.0207,-0.0046,1.0468
2025-06-26 20:56:35.841140,82,-163.4,0.0261,-0.0019,1.049
2025-06-26 20:56:35.941140,82,-425.5,0.0278,-0.0014,1.0471
2025-06-26 20:56:36.184782,86,-163.4,0.0261,-0.0197,1.0317
2025-06-26 20:56:36.284782,86,-163.4,0.0246,-0.0163,1.0402
2025-06-26 20:56:36.384782,86,-163.4,0.0249,0.0019,1.0458
2025-06-26 20:56:36.203711,87,-163.4,0.0246,-0.0163,1.0402
2025-06-26 20:56:36.303711,87,-163.4,0.0249,0.0019,1.0458
2025-06-26 20:56:36.403711,87,-163.4,0.0224,0.0014,1.0512
2025-06-26 20:56:36.347467,88,-163.4,0.0249,0.0019,1.0458
2025-06-26 20:56:36.447467,88,-163.4,0.0224,0.0014,1.0512
2025-06-26 20:56:36.547467,88,-294.4,0.0131,-0.0043,1.0393
2025-06-26 20:56:36.647650,91,-294.4,0.0185,-0.0092,1.0415
2025-06-26 20:56:36.747650,91,-294.4,0.0229,-0.0158,1.0432
2025-06-26 20:56:36.847650,91,-294.4,0.0295,-0.0134,1.04
2025-06-26 20:56:36.943097,94,-556.6,0.0302,-0.01,1.0402
2025-06-26 20:56:37.043097,94,-556.6,0.0266,-0.0078,1.0419
2025-06-26 20:56:37.143097,94,-294.4,0.0114,0.0021,1.0402
2025-06-26 20:56:37.247307,97,-163.4,0.0168,-0.0017,1.0412
2025-06-26 20:56:37.347307,97,-294.4,0.0288,-0.0043,1.0351
2025-06-26 20:56:37.447307,97,-32.3,0.0258,-0.0146,1.0334
2025-06-26 20:56:37.602320,101,-163.4,0.0246,-0.0041,1.0468
2025-06-26 20:56:37.702320,101,-163.4,0.02,-0.0041,1.0512
2025-06-26 20:56:37.802320,101,-32.3,0.0148,-0.0056,1.0336
2025-06-26 20:56:37.846745,103,-32.3,0.0148,-0.0056,1.0336
2025-06-26 20:56:37.946745,103,-163.4,0.018,-0.0058,1.0373
2025-06-26 20:56:38.046745,103,-294.4,0.0185,-0.007,1.0336
2025-06-26 20:56:38.748718,106,-32.3,0.03,-0.0151,1.041
2025-06-26 20:56:38.848718,106,-32.3,0.0249,-0.0112,1.0422
2025-06-26 20:56:38.948718,106,-425.5,0.0195,-0.0019,1.0483
2025-06-26 20:56:38.749579,112,-294.4,0.0205,-0.0148,1.0378
2025-06-26 20:56:38.849579,112,-163.4,0.019,-0.0114,1.051
2025-06-26 20:56:38.949579,112,-32.3,0.0161,0.0,1.05
2025-06-26 20:56:39.045917,115,-32.3,0.0256,0.0009,1.0539
2025-06-26 20:56:39.145917,115,-163.4,0.0278,-0.0029,1.0415
2025-06-26 20:56:39.245917,115,-163.4,0.0249,-0.0095,1.0366
2025-06-26 20:56:39.343556,118,-163.4,0.0168,-0.0092,1.0332
2025-06-26 20:56:39.443556,118,-32.3,0.0224,-0.0104,1.0429
2025-06-26 20:56:39.543556,118,-32.3,0.0261,0.0002,1.0434
2025-06-26 20:56:39.952108,124,-425.5,0.0219,-0.007,1.0354
2025-06-26 20:56:40.052108,124,-32.3,0.0295,-0.0148,1.0383
2025-06-26 20:56:40.152108,124,-163.4,0.0227,-0.0119,1.0339
2025-06-26 20:56:40.248456,127,-32.3,0.0236,-0.0102,1.0424
2025-06-26 20:56:40.348456,127,-294.4,0.0168,-0.0097,1.0358
2025-06-26 20:56:40.448456,127,-425.5,0.02,-0.0051,1.0454
2025-06-26 20:56:40.541252,130,-163.4,0.0214,-0.0046,1.0456
2025-06-26 20:56:40.641252,130,-32.3,0.029,-0.0114,1.0361
2025-06-26 20:56:40.741252,130,-294.4,0.0239,-0.0026,1.0395
2025-06-26 20:56:40.843871,133,-556.6,0.0207,-0.0114,1.0458
2025-06-26 20:56:40.943871,133,-294.4,0.0209,-0.0078,1.0441
2025-06-26 20:56:41.043871,133,-32.3,0.0219,-0.0053,1.0498
2025-06-26 20:56:41.145986,136,-163.4,0.019,-0.0061,1.0407
2025-06-26 20:56:41.245986,136,-425.5,0.0192,-0.0053,1.0422
2025-06-26 20:56:41.345986,136,-425.5,0.0253,-0.0122,1.0346
2025-06-26 20:56:41.448744,137,-425.5,0.0192,-0.0053,1.0422
2025-06-26 20:56:41.548744,137,-425.5,0.0253,-0.0122,1.0346
2025-06-26 20:56:41.648744,137,-425.5,0.0307,-0.0097,1.0395
2025-06-26 20:56:41.756472,139,-425.5,0.0307,-0.0097,1.0395
2025-06-26 20:56:41.856472,139,-556.6,0.0305,-0.0146,1.0468
2025-06-26 20:56:41.956472,139,-425.5,0.0207,-0.0134,1.038
2025-06-26 20:56:42.046838,145,-32.3,0.0664,-0.0029,1.0319
2025-06-26 20:56:42.146838,145,-163.4,0.0517,-0.0034,1.0544
2025-06-26 20:56:42.246838,145,-163.4,0.0346,0.01,1.0268
2025-06-26 20:56:42.981591,154,-294.4,0.0773,-0.0048,1.0324
2025-06-26 20:56:43.081591,154,98.8,0.0737,0.0056,1.0449
2025-06-26 20:56:43.181591,154,98.8,0.08,0.0029,1.0324
2025-06-26 20:56:43.248242,157,-425.5,0.0788,-0.0061,1.0246
2025-06-26 20:56:43.348242,157,-425.5,0.0771,0.0014,1.0305
2025-06-26 20:56:43.448242,157,-163.4,0.0808,0.0041,1.0361
2025-06-26 20:56:43.845713,163,-294.4,0.0717,0.0061,1.0363
2025-06-26 20:56:43.945713,163,-556.6,0.0771,0.0021,1.0463
2025-06-26 20:56:44.045713,163,-425.5,0.0798,0.0002,1.0405
2025-06-26 20:56:44.143791,166,-163.4,0.0817,0.0007,1.0368
2025-06-26 20:56:44.243791,166,-425.5,0.0766,-0.0056,1.0437
2025-06-26 20:56:44.343791,166,-425.5,0.0678,-0.0004,1.04
2025-06-26 20:56:44.472429,169,-294.4,0.0788,0.0092,1.0419
2025-06-26 20:56:44.572429,169,-163.4,0.0827,0.0036,1.0407
2025-06-26 20:56:44.672429,169,-163.4,0.0827,-0.0009,1.0361
2025-06-26 20:56:45.045829,175,98.8,0.0791,0.008,1.0444
2025-06-26 20:56:45.145829,175,229.8,0.0729,0.0007,1.0319
2025-06-26 20:56:45.245829,175,-425.5,0.0668,0.0048,1.0332
2025-06-26 20:56:45.647245,181,-556.6,0.0888,-0.0075,1.0351
2025-06-26 20:56:45.747245,181,-294.4,0.0759,-0.0046,1.0378
2025-06-26 20:56:45.847245,181,-163.4,0.0739,0.0012,1.038
2025-06-26 20:56:45.948208,184,-294.4,0.0766,0.0024,1.0522
2025-06-26 20:56:46.048208,184,-163.4,0.0739,0.0087,1.0471
2025-06-26 20:56:46.148208,184,-163.4,0.0786,0.0117,1.0339
2025-06-26 20:56:46.588941,190,-32.3,0.0793,-0.0021,1.0388
2025-06-26 20:56:46.688941,190,-32.3,0.0798,0.0095,1.0429
2025-06-26 20:56:46.788941,190,-163.4,0.0832,0.0053,1.039
2025-06-26 20:56:46.602318,191,-32.3,0.0798,0.0095,1.0429
2025-06-26 20:56:46.702318,191,-163.4,0.0832,0.0053,1.039
2025-06-26 20:56:46.802318,191,-294.4,0.0815,-0.0036,1.0336
2025-06-26 20:56:46.845730,193,-294.4,0.0815,-0.0036,1.0336
2025-06-26 20:56:46.945730,193,-556.6,0.0761,-0.0036,1.0356
2025-06-26 20:56:47.045730,193,-294.4,0.0761,0.0036,1.0402
2025-06-26 20:56:48.387131,208,-32.3,0.0695,0.0107,1.0524
2025-06-26 20:56:48.487131,208,-294.4,0.0773,0.0073,1.038
2025-06-26 20:56:48.587131,208,-425.5,0.0869,-0.0043,1.0275
2025-06-26 20:56:48.946827,214,-32.3,0.0749,0.0102,1.052
2025-06-26 20:56:49.046827,214,-32.3,0.0664,-0.0012,1.0329
2025-06-26 20:56:49.146827,214,98.8,0.0578,0.017,1.0488
2025-06-26 20:56:49.278941,217,98.8,0.0576,-0.0075,1.059
2025-06-26 20:56:49.378941,217,-294.4,0.0668,-0.0034,0.9631
2025-06-26 20:56:49.478941,217,-294.4,0.0637,-0.0046,1.0378
2025-06-26 20:56:50.146276,226,-294.4,0.0517,0.0246,1.0354
2025-06-26 20:56:50.246276,226,-294.4,0.0698,0.0314,1.0046
2025-06-26 20:56:50.346276,226,-294.4,-0.0095,-0.0043,1.1174
2025-06-26 20:56:50.447265,229,-294.4,0.0827,-0.0024,1.0268
2025-06-26 20:56:50.547265,229,-163.4,0.049,0.0087,1.0334
2025-06-26 20:56:50.647265,229,-294.4,0.0437,0.0063,1.048
2025-06-26 20:56:51.058035,232,-425.5,0.0566,-0.0004,1.0458
2025-06-26 20:56:51.158035,232,-163.4,0.0483,0.0119,1.0405
2025-06-26 20:56:51.258035,232,-163.4,0.0356,0.0063,1.0439
2025-06-26 20:56:51.090297,235,-294.4,0.0446,0.0114,1.0415
2025-06-26 20:56:51.190297,235,-294.4,0.0654,0.0026,1.0378
2025-06-26 20:56:51.290297,235,-294.4,0.0532,0.0061,1.0451
