timestamp,packet_id,pressure,accel_x,accel_y,accel_z
2025-06-10 18:16:59.305667,26,361.4,0.0114,-0.0615,1.1594
2025-06-10 18:16:59.405667,26,361.4,0.018,-0.0209,1.163
2025-06-10 18:16:59.505667,26,492.5,-0.0007,-0.0305,1.1699
2025-06-10 18:16:59.308798,27,361.4,0.018,-0.0209,1.163
2025-06-10 18:16:59.408798,27,492.5,-0.0007,-0.0305,1.1699
2025-06-10 18:16:59.508798,27,361.4,-0.0007,-0.0268,1.1635
2025-06-10 18:17:00.935015,43,99.3,-0.0073,-0.0209,1.1667
2025-06-10 18:17:01.035015,43,99.3,-0.0046,-0.0195,1.1623
2025-06-10 18:17:01.135015,43,230.4,-0.007,-0.0183,1.166
2025-06-10 18:17:01.799175,51,492.5,-0.0043,-0.0231,1.1713
2025-06-10 18:17:01.899175,51,623.6,-0.0043,-0.0187,1.1682
2025-06-10 18:17:01.999175,51,754.6,-0.0061,-0.0231,1.1669
2025-06-10 18:17:02.668800,60,361.4,-0.0024,-0.0241,1.1667
2025-06-10 18:17:02.768800,60,230.4,-0.0048,-0.0212,1.1708
2025-06-10 18:17:02.868800,60,361.4,-0.0043,-0.0258,1.1679
2025-06-10 18:17:02.965176,63,361.4,-0.0021,-0.0244,1.1687
2025-06-10 18:17:03.065176,63,99.3,-0.0043,-0.0234,1.176
2025-06-10 18:17:03.165176,63,230.4,-0.0036,-0.0227,1.1616
2025-06-10 18:17:03.365905,66,99.3,-0.0029,-0.0212,1.1662
2025-06-10 18:17:03.465905,66,230.4,-0.0012,-0.0217,1.1643
2025-06-10 18:17:03.565905,66,361.4,-0.0017,-0.0263,1.1679
2025-06-10 18:17:03.849166,72,361.4,-0.0029,-0.0212,1.1674
2025-06-10 18:17:03.949166,72,492.5,-0.0034,-0.0236,1.1672
2025-06-10 18:17:04.049166,72,230.4,-0.0014,-0.0261,1.1706
2025-06-10 18:17:04.473647,78,492.5,-0.0087,-0.0236,1.1694
2025-06-10 18:17:04.573647,78,492.5,-0.0053,-0.0217,1.1647
2025-06-10 18:17:04.673647,78,99.3,-0.0053,-0.0236,1.1684
2025-06-10 18:17:04.652332,80,99.3,-0.0053,-0.0236,1.1684
2025-06-10 18:17:04.752332,80,230.4,-0.0087,-0.0263,1.1618
2025-06-10 18:17:04.852332,80,492.5,-0.0058,-0.0229,1.1694
2025-06-10 18:17:05.396724,87,623.6,-0.0053,-0.0222,1.1726
2025-06-10 18:17:05.496724,87,754.6,0.0012,-0.0214,1.1696
2025-06-10 18:17:05.596724,87,754.6,-0.0026,-0.0278,1.1679
2025-06-10 18:17:05.694934,90,885.7,-0.007,-0.029,1.1701
2025-06-10 18:17:05.794934,90,623.6,-0.0078,-0.0278,1.1723
2025-06-10 18:17:05.894934,90,230.4,-0.0007,-0.0249,1.1662
2025-06-10 18:17:06.250756,96,492.5,-0.0034,-0.0234,1.177
2025-06-10 18:17:06.350756,96,361.4,-0.0019,-0.0214,1.1674
2025-06-10 18:17:06.450756,96,99.3,-0.0053,-0.0209,1.1665
2025-06-10 18:17:06.592512,99,230.4,-0.0014,-0.0234,1.1721
2025-06-10 18:17:06.692512,99,492.5,0.0002,-0.0222,1.1696
2025-06-10 18:17:06.792512,99,492.5,-0.0043,-0.0217,1.1713
2025-06-10 18:17:07.790090,111,-31.8,-0.0019,-0.0246,1.1701
2025-06-10 18:17:07.890090,111,99.3,-0.0056,-0.0195,1.1645
2025-06-10 18:17:07.990090,111,230.4,-0.01,-0.0241,1.1672
2025-06-10 18:17:08.958038,123,754.6,-0.0053,-0.0231,1.1684
2025-06-10 18:17:09.058038,123,623.6,0.0004,-0.0222,1.1721
2025-06-10 18:17:09.158038,123,361.4,-0.0046,-0.0261,1.1711
2025-06-10 18:17:09.510624,129,492.5,-0.0036,-0.0268,1.1662
2025-06-10 18:17:09.610624,129,230.4,0.0002,-0.0241,1.1694
2025-06-10 18:17:09.710624,129,230.4,-0.0058,-0.0239,1.174
2025-06-10 18:17:10.462714,138,754.6,-0.0058,-0.0197,1.166
2025-06-10 18:17:10.562714,138,623.6,0.0048,-0.0151,1.1674
2025-06-10 18:17:10.662714,138,230.4,-0.0036,-0.0239,1.1706
2025-06-10 18:17:11.009011,141,99.3,-0.0039,-0.0217,1.1691
2025-06-10 18:17:11.109011,141,361.4,-0.0026,-0.019,1.1672
2025-06-10 18:17:11.209011,141,623.6,-0.0063,-0.0214,1.1618
2025-06-10 18:17:11.350868,147,230.4,-0.0019,-0.0229,1.1721
2025-06-10 18:17:11.450868,147,623.6,-0.0043,-0.0227,1.1672
2025-06-10 18:17:11.550868,147,754.6,-0.0014,-0.0253,1.1721
2025-06-10 18:17:11.611982,150,623.6,-0.007,-0.0256,1.1726
2025-06-10 18:17:11.711982,150,623.6,-0.0053,-0.0187,1.1716
2025-06-10 18:17:11.811982,150,623.6,-0.009,-0.0224,1.1701
2025-06-10 18:17:12.227885,156,623.6,-0.0012,-0.0268,1.163
2025-06-10 18:17:12.327885,156,361.4,-0.0031,-0.0251,1.164
2025-06-10 18:17:12.427885,156,230.4,-0.0029,-0.0224,1.1701
2025-06-10 18:17:12.850986,162,230.4,-0.0029,-0.0202,1.1701
2025-06-10 18:17:12.950986,162,361.4,-0.0029,-0.0288,1.1691
2025-06-10 18:17:13.050986,162,361.4,-0.0053,-0.0236,1.1699
2025-06-10 18:17:13.109530,165,623.6,-0.0034,-0.0258,1.1667
2025-06-10 18:17:13.209530,165,754.6,-0.0056,-0.0214,1.1645
2025-06-10 18:17:13.309530,165,361.4,-0.0004,-0.0207,1.173
2025-06-10 18:17:13.702150,169,230.4,-0.0039,-0.0246,1.1735
2025-06-10 18:17:13.802150,169,361.4,-0.0031,-0.0227,1.1723
2025-06-10 18:17:13.902150,169,361.4,-0.0053,-0.0256,1.1665
2025-06-10 18:17:14.010072,174,361.4,-0.0053,-0.0222,1.1716
2025-06-10 18:17:14.110072,174,99.3,-0.0053,-0.0217,1.1733
2025-06-10 18:17:14.210072,174,99.3,-0.0031,-0.0227,1.1682
2025-06-10 18:17:14.608987,180,623.6,-0.0024,-0.0212,1.1652
2025-06-10 18:17:14.708987,180,754.6,-0.0034,-0.0214,1.1669
2025-06-10 18:17:14.808987,180,885.7,-0.0053,-0.0229,1.1689
2025-06-10 18:17:15.218869,185,492.5,-0.0068,-0.0222,1.1586
2025-06-10 18:17:15.318869,185,492.5,-0.008,-0.0236,1.1691
2025-06-10 18:17:15.418869,185,623.6,-0.0026,-0.0231,1.1679
2025-06-10 18:17:15.866883,192,230.4,-0.007,-0.0207,1.1696
2025-06-10 18:17:15.966883,192,230.4,-0.0063,-0.0244,1.1691
2025-06-10 18:17:16.066883,192,99.3,-0.0021,-0.0239,1.1745
2025-06-10 18:17:16.149669,195,230.4,-0.0063,-0.0239,1.1672
2025-06-10 18:17:16.249669,195,361.4,-0.007,-0.0207,1.1704
2025-06-10 18:17:16.349669,195,99.3,-0.0073,-0.02,1.1701
2025-06-10 18:17:16.688603,200,623.6,-0.0026,-0.0212,1.1669
2025-06-10 18:17:16.788603,200,492.5,-0.0029,-0.0234,1.1608
2025-06-10 18:17:16.888603,200,623.6,-0.0046,-0.0246,1.164
2025-06-10 18:17:16.809268,201,492.5,-0.0029,-0.0234,1.1608
2025-06-10 18:17:16.909268,201,623.6,-0.0046,-0.0246,1.164
2025-06-10 18:17:17.009268,201,230.4,-0.007,-0.0253,1.1679
2025-06-10 18:17:16.810052,202,623.6,-0.0046,-0.0246,1.164
2025-06-10 18:17:16.910052,202,230.4,-0.007,-0.0253,1.1679
2025-06-10 18:17:17.010052,202,99.3,-0.0051,-0.0209,1.1716
2025-06-10 18:17:17.011304,204,99.3,-0.0051,-0.0209,1.1716
2025-06-10 18:17:17.111304,204,361.4,-0.0051,-0.0219,1.1713
2025-06-10 18:17:17.211304,204,492.5,-0.0065,-0.0234,1.1689
2025-06-10 18:17:17.622041,209,361.4,0.0021,-0.0253,1.1655
2025-06-10 18:17:17.722041,209,492.5,-0.009,-0.0317,1.1689
2025-06-10 18:17:17.822041,209,492.5,-0.0048,-0.029,1.1682
2025-06-10 18:17:18.204311,213,361.4,-0.0021,-0.0224,1.1655
2025-06-10 18:17:18.304311,213,361.4,-0.0014,-0.0178,1.165
2025-06-10 18:17:18.404311,213,-31.8,-0.0012,-0.0187,1.1625
2025-06-10 18:17:18.649318,220,361.4,-0.0051,-0.0222,1.165
2025-06-10 18:17:18.749318,220,361.4,-0.0073,-0.0212,1.1604
2025-06-10 18:17:18.849318,220,99.3,-0.0048,-0.0214,1.1716
2025-06-10 18:17:18.848214,222,99.3,-0.0048,-0.0214,1.1716
2025-06-10 18:17:18.948214,222,230.4,-0.0051,-0.0214,1.1667
2025-06-10 18:17:19.048214,222,623.6,-0.0029,-0.0192,1.1635
2025-06-10 18:17:19.410981,228,492.5,-0.0034,-0.0256,1.1701
2025-06-10 18:17:19.510981,228,623.6,-0.0017,-0.0241,1.1677
2025-06-10 18:17:19.610981,228,754.6,-0.0026,-0.0283,1.1665
2025-06-10 18:17:19.708424,231,623.6,-0.0017,-0.0241,1.166
2025-06-10 18:17:19.808424,231,361.4,-0.0053,-0.0219,1.1669
2025-06-10 18:17:19.908424,231,623.6,-0.0029,-0.0222,1.1635
2025-06-10 18:17:19.846435,232,361.4,-0.0053,-0.0219,1.1669
2025-06-10 18:17:19.946435,232,623.6,-0.0029,-0.0222,1.1635
2025-06-10 18:17:20.046435,232,623.6,-0.007,-0.0209,1.1711
2025-06-10 18:17:20.350702,237,492.5,-0.0058,-0.0222,1.1721
2025-06-10 18:17:20.450702,237,492.5,-0.0043,-0.0227,1.1647
2025-06-10 18:17:20.550702,237,361.4,-0.0012,-0.0197,1.164
2025-06-10 18:17:20.912646,241,361.4,-0.007,-0.0222,1.1711
2025-06-10 18:17:21.012646,241,754.6,-0.0063,-0.0236,1.1662
2025-06-10 18:17:21.112646,241,492.5,-0.0039,-0.0212,1.1721
2025-06-10 18:17:21.853873,252,623.6,-0.0034,-0.0212,1.1677
2025-06-10 18:17:21.953873,252,754.6,-0.0026,-0.0192,1.1718
2025-06-10 18:17:22.053873,252,361.4,-0.0024,-0.0229,1.1713
2025-06-10 18:17:22.408104,2,361.4,-0.0068,-0.0222,1.1628
2025-06-10 18:17:22.508104,2,492.5,-0.0083,-0.0234,1.1713
2025-06-10 18:17:22.608104,2,1016.8,-0.0036,-0.0234,1.1669
2025-06-10 18:17:22.752557,5,754.6,-0.0068,-0.0253,1.1667
2025-06-10 18:17:22.852557,5,492.5,-0.007,-0.0229,1.1677
2025-06-10 18:17:22.952557,5,361.4,-0.0046,-0.0222,1.1694
2025-06-10 18:17:23.109742,8,230.4,-0.0009,-0.0227,1.1677
2025-06-10 18:17:23.209742,8,361.4,-0.0009,-0.0217,1.1662
2025-06-10 18:17:23.309742,8,361.4,-0.0034,-0.0253,1.1669
2025-06-10 18:17:23.297528,9,361.4,-0.0009,-0.0217,1.1662
2025-06-10 18:17:23.397528,9,361.4,-0.0034,-0.0253,1.1669
2025-06-10 18:17:23.497528,9,99.3,-0.0078,-0.0256,1.1687
2025-06-10 18:17:23.322848,11,99.3,-0.0078,-0.0256,1.1687
2025-06-10 18:17:23.422848,11,99.3,-0.0051,-0.0214,1.1677
2025-06-10 18:17:23.522848,11,492.5,-0.0014,-0.0266,1.1745
2025-06-10 18:17:23.655453,14,492.5,-0.0041,-0.0251,1.1657
2025-06-10 18:17:23.755453,14,230.4,-0.0056,-0.0222,1.1662
2025-06-10 18:17:23.855453,14,361.4,-0.0019,-0.0231,1.1701
2025-06-10 18:17:24.208629,20,623.6,-0.0041,-0.0219,1.1667
2025-06-10 18:17:24.308629,20,492.5,-0.0063,-0.0214,1.1689
2025-06-10 18:17:24.408629,20,361.4,-0.0085,-0.0246,1.1638
2025-06-10 18:17:24.840344,26,230.4,-0.009,-0.0256,1.1657
2025-06-10 18:17:24.940344,26,623.6,-0.0097,-0.0231,1.1721
2025-06-10 18:17:25.040344,26,754.6,-0.0068,-0.0256,1.164
2025-06-10 18:17:25.155254,29,623.6,-0.0021,-0.0231,1.164
2025-06-10 18:17:25.255254,29,623.6,-0.0026,-0.0227,1.1672
2025-06-10 18:17:25.355254,29,754.6,-0.0036,-0.0251,1.1691
2025-06-10 18:17:25.457004,32,623.6,-0.0053,-0.0209,1.1694
2025-06-10 18:17:25.557004,32,492.5,-0.0053,-0.0317,1.1618
2025-06-10 18:17:25.657004,32,230.4,-0.0036,-0.0202,1.1738
2025-06-10 18:17:26.050284,38,230.4,-0.0007,-0.0244,1.164
2025-06-10 18:17:26.150284,38,492.5,-0.0043,-0.02,1.163
2025-06-10 18:17:26.250284,38,623.6,-0.0068,-0.0241,1.1657
2025-06-10 18:17:26.698029,44,492.5,-0.0048,-0.0258,1.1679
2025-06-10 18:17:26.798029,44,754.6,-0.0083,-0.0209,1.1694
2025-06-10 18:17:26.898029,44,492.5,-0.0061,-0.0202,1.1706
2025-06-10 18:17:26.951095,47,492.5,-0.0039,-0.0227,1.1655
2025-06-10 18:17:27.051095,47,361.4,-0.0046,-0.0205,1.1726
2025-06-10 18:17:27.151095,47,361.4,-0.0068,-0.0222,1.1721
2025-06-10 18:17:27.210984,50,492.5,-0.0026,-0.0195,1.1667
2025-06-10 18:17:27.310984,50,623.6,-0.0058,-0.0263,1.1672
2025-06-10 18:17:27.410984,50,754.6,-0.0061,-0.0192,1.1669
2025-06-10 18:17:27.825709,56,623.6,-0.0051,-0.0234,1.1689
2025-06-10 18:17:27.925709,56,623.6,-0.0073,-0.0244,1.1708
2025-06-10 18:17:28.025709,56,492.5,-0.0039,-0.0197,1.1647
2025-06-10 18:17:28.424762,62,623.6,0.0004,-0.0234,1.1711
2025-06-10 18:17:28.524762,62,623.6,-0.0014,-0.0231,1.1674
2025-06-10 18:17:28.624762,62,492.5,-0.0017,-0.0224,1.1665
2025-06-10 18:17:29.108776,68,361.4,-0.0058,-0.0219,1.1669
2025-06-10 18:17:29.208776,68,492.5,-0.0056,-0.0195,1.1647
2025-06-10 18:17:29.308776,68,623.6,-0.0051,-0.0178,1.1608
2025-06-10 18:17:30.810586,86,623.6,-0.0065,-0.0229,1.1667
2025-06-10 18:17:30.910586,86,754.6,-0.0065,-0.0222,1.1625
2025-06-10 18:17:31.010586,86,492.5,-0.0021,-0.0219,1.1682
2025-06-10 18:17:31.099607,88,492.5,-0.0021,-0.0219,1.1682
2025-06-10 18:17:31.199607,88,492.5,-0.0019,-0.0224,1.166
2025-06-10 18:17:31.299607,88,492.5,0.0004,-0.0222,1.1699
2025-06-10 18:17:31.549270,93,623.6,-0.0061,-0.0202,1.1706
2025-06-10 18:17:31.649270,93,492.5,-0.007,-0.0241,1.1696
2025-06-10 18:17:31.749270,93,492.5,-0.0053,-0.0236,1.1662
2025-06-10 18:17:32.030105,98,492.5,-0.01,-0.0227,1.1684
2025-06-10 18:17:32.130105,98,623.6,-0.007,-0.0217,1.1672
2025-06-10 18:17:32.230105,98,885.7,-0.0068,-0.0212,1.1655
2025-06-10 18:17:32.349120,101,754.6,-0.0041,-0.0229,1.1699
2025-06-10 18:17:32.449120,101,492.5,-0.0056,-0.0209,1.1633
2025-06-10 18:17:32.549120,101,492.5,-0.0043,-0.0236,1.1643
2025-06-10 18:17:32.610445,104,361.4,-0.0043,-0.028,1.1667
2025-06-10 18:17:32.710445,104,361.4,-0.0061,-0.0236,1.1687
2025-06-10 18:17:32.810445,104,623.6,-0.0063,-0.0187,1.1638
2025-06-10 18:17:32.948385,107,492.5,-0.0063,-0.0197,1.1672
2025-06-10 18:17:33.048385,107,492.5,-0.0061,-0.0207,1.1645
2025-06-10 18:17:33.148385,107,492.5,-0.0034,-0.0202,1.1701
2025-06-10 18:17:33.252671,110,754.6,-0.0075,-0.0214,1.1665
2025-06-10 18:17:33.352671,110,754.6,-0.0034,-0.0278,1.1728
2025-06-10 18:17:33.452671,110,492.5,-0.007,-0.0236,1.165
2025-06-10 18:17:35.027856,128,-31.8,-0.0053,-0.0217,1.1696
2025-06-10 18:17:35.127856,128,99.3,-0.0061,-0.0236,1.165
2025-06-10 18:17:35.227856,128,492.5,-0.0034,-0.0231,1.1708
2025-06-10 18:17:36.508074,143,361.4,-0.0048,-0.0239,1.1772
2025-06-10 18:17:36.608074,143,492.5,-0.0061,-0.0278,1.1687
2025-06-10 18:17:36.708074,143,492.5,-0.0048,-0.0236,1.1689
2025-06-10 18:17:36.708112,145,492.5,-0.0048,-0.0236,1.1689
2025-06-10 18:17:36.808112,145,623.6,-0.0026,-0.0224,1.1606
2025-06-10 18:17:36.908112,145,492.5,-0.0058,-0.0222,1.1682
2025-06-10 18:17:37.406555,149,230.4,-0.0043,-0.0217,1.1689
2025-06-10 18:17:37.506555,149,99.3,-0.0056,-0.0227,1.1665
2025-06-10 18:17:37.606555,149,230.4,-0.0051,-0.0249,1.1704
2025-06-10 18:17:37.497909,152,361.4,-0.0041,-0.0217,1.1699
2025-06-10 18:17:37.597909,152,361.4,-0.0048,-0.0241,1.1721
2025-06-10 18:17:37.697909,152,230.4,-0.007,-0.0209,1.1745
2025-06-10 18:17:37.710035,153,361.4,-0.0048,-0.0241,1.1721
2025-06-10 18:17:37.810035,153,230.4,-0.007,-0.0209,1.1745
2025-06-10 18:17:37.910035,153,361.4,-0.0046,-0.0239,1.1628
2025-06-10 18:17:37.710821,155,361.4,-0.0046,-0.0239,1.1628
2025-06-10 18:17:37.810821,155,361.4,-0.008,-0.0205,1.1699
2025-06-10 18:17:37.910821,155,230.4,-0.0036,-0.0222,1.1657
2025-06-10 18:17:38.321073,161,492.5,-0.0061,-0.0256,1.1713
2025-06-10 18:17:38.421073,161,623.6,-0.0041,-0.0234,1.1672
2025-06-10 18:17:38.521073,161,623.6,-0.0051,-0.017,1.1691
2025-06-10 18:17:38.611378,164,623.6,-0.0073,-0.0253,1.1699
2025-06-10 18:17:38.711378,164,623.6,-0.0048,-0.0251,1.1706
2025-06-10 18:17:38.811378,164,754.6,-0.0017,-0.0205,1.1643
2025-06-10 18:17:38.908293,167,492.5,-0.0046,-0.0217,1.1696
2025-06-10 18:17:39.008293,167,492.5,-0.0002,-0.0202,1.1665
2025-06-10 18:17:39.108293,167,492.5,-0.0026,-0.0268,1.1713
2025-06-10 18:17:39.264733,170,361.4,-0.0021,-0.0275,1.165
2025-06-10 18:17:39.364733,170,361.4,-0.0029,-0.0214,1.1682
2025-06-10 18:17:39.464733,170,623.6,-0.0034,-0.0214,1.1694
2025-06-10 18:17:40.160038,179,361.4,-0.0051,-0.0224,1.1691
2025-06-10 18:17:40.260038,179,230.4,-0.0041,-0.0224,1.1701
2025-06-10 18:17:40.360038,179,230.4,-0.0019,-0.0278,1.173
2025-06-10 18:17:40.422531,182,361.4,-0.0036,-0.0236,1.1689
2025-06-10 18:17:40.522531,182,492.5,-0.0058,-0.0234,1.1726
2025-06-10 18:17:40.622531,182,492.5,-0.007,-0.0217,1.1667
2025-06-10 18:17:41.053483,188,492.5,-0.0007,-0.0246,1.1728
2025-06-10 18:17:41.153483,188,623.6,-0.0061,-0.0261,1.1665
2025-06-10 18:17:41.253483,188,492.5,-0.0021,-0.0253,1.1687
2025-06-10 18:17:41.310943,191,492.5,-0.0063,-0.0278,1.1718
2025-06-10 18:17:41.410943,191,623.6,-0.0002,-0.0219,1.166
2025-06-10 18:17:41.510943,191,754.6,-0.0043,-0.0222,1.1726
2025-06-10 18:17:42.251766,200,492.5,-0.0048,-0.0227,1.1677
2025-06-10 18:17:42.351766,200,492.5,-0.0039,-0.0192,1.1689
2025-06-10 18:17:42.451766,200,623.6,-0.0087,-0.0207,1.1694
2025-06-10 18:17:42.651433,204,754.6,-0.0053,-0.0249,1.166
2025-06-10 18:17:42.751433,204,623.6,-0.007,-0.0222,1.1662
2025-06-10 18:17:42.851433,204,492.5,-0.0068,-0.0244,1.1691
2025-06-10 18:17:42.837953,206,492.5,-0.0068,-0.0244,1.1691
2025-06-10 18:17:42.937953,206,361.4,-0.0036,-0.0246,1.1721
2025-06-10 18:17:43.037953,206,492.5,-0.0029,-0.0241,1.1608
2025-06-10 18:17:43.408429,212,492.5,-0.0043,-0.0224,1.1657
2025-06-10 18:17:43.508429,212,492.5,-0.0043,-0.0205,1.1645
2025-06-10 18:17:43.608429,212,492.5,-0.0043,-0.0209,1.1726
2025-06-10 18:17:43.709094,215,885.7,-0.007,-0.0241,1.1713
2025-06-10 18:17:43.809094,215,754.6,-0.0085,-0.0278,1.1718
2025-06-10 18:17:43.909094,215,492.5,-0.0068,-0.031,1.1691
2025-06-10 18:17:44.011452,218,361.4,-0.0041,-0.0275,1.1708
2025-06-10 18:17:44.111452,218,492.5,-0.008,-0.0266,1.1687
2025-06-10 18:17:44.211452,218,754.6,-0.0019,-0.0239,1.1704
2025-06-10 18:17:44.351284,221,492.5,-0.0009,-0.0207,1.1652
2025-06-10 18:17:44.451284,221,99.3,-0.0024,-0.0166,1.1696
2025-06-10 18:17:44.551284,221,230.4,-0.0009,-0.0236,1.1674
2025-06-10 18:17:44.609537,224,361.4,-0.0061,-0.0227,1.1718
2025-06-10 18:17:44.709537,224,230.4,-0.01,-0.0212,1.1718
2025-06-10 18:17:44.809537,224,99.3,-0.0065,-0.0231,1.1665
2025-06-10 18:17:44.910538,227,492.5,-0.0034,-0.0229,1.1689
2025-06-10 18:17:45.010538,227,623.6,-0.0078,-0.0251,1.1694
2025-06-10 18:17:45.110538,227,230.4,-0.0021,-0.0234,1.166
2025-06-10 18:17:45.253305,230,361.4,-0.0039,-0.0227,1.1682
2025-06-10 18:17:45.353305,230,230.4,-0.0039,-0.0195,1.1708
2025-06-10 18:17:45.453305,230,492.5,-0.0007,-0.0227,1.1701
2025-06-10 18:17:45.810574,236,361.4,-0.0063,-0.0244,1.1657
2025-06-10 18:17:45.910574,236,230.4,-0.0085,-0.0214,1.1713
2025-06-10 18:17:46.010574,236,623.6,-0.0026,-0.0239,1.1667
2025-06-10 18:17:46.424507,242,99.3,-0.0021,-0.0241,1.1701
2025-06-10 18:17:46.524507,242,-162.9,-0.0039,-0.0205,1.1689
2025-06-10 18:17:46.624507,242,230.4,-0.0017,-0.0185,1.1674
2025-06-10 18:17:47.307211,248,230.4,-0.0073,-0.0224,1.166
2025-06-10 18:17:47.407211,248,230.4,-0.0073,-0.0219,1.1677
2025-06-10 18:17:47.507211,248,361.4,-0.0073,-0.0256,1.1735
2025-06-10 18:17:47.663427,254,361.4,-0.0046,-0.0244,1.1665
2025-06-10 18:17:47.763427,254,230.4,-0.0053,-0.029,1.1691
2025-06-10 18:17:47.863427,254,230.4,-0.0053,-0.0224,1.1687
2025-06-10 18:17:47.910376,1,492.5,-0.0039,-0.0219,1.1706
2025-06-10 18:17:48.010376,1,492.5,-0.0036,-0.0195,1.1665
2025-06-10 18:17:48.110376,1,361.4,-0.0019,-0.0227,1.1672
2025-06-10 18:17:48.814788,10,-31.8,-0.0034,-0.0214,1.1608
2025-06-10 18:17:48.914788,10,99.3,-0.0043,-0.0195,1.1657
2025-06-10 18:17:49.014788,10,361.4,-0.0012,-0.0205,1.1655
2025-06-10 18:17:49.435032,15,230.4,-0.0053,-0.0253,1.1711
2025-06-10 18:17:49.535032,15,230.4,-0.0061,-0.0241,1.1618
2025-06-10 18:17:49.635032,15,492.5,-0.0019,-0.0234,1.1616
2025-06-10 18:17:50.009422,22,361.4,-0.0036,-0.0258,1.1706
2025-06-10 18:17:50.109422,22,230.4,-0.0034,-0.0209,1.1743
2025-06-10 18:17:50.209422,22,99.3,-0.0053,-0.0253,1.1628
2025-06-10 18:17:50.908966,31,361.4,-0.0141,-0.0224,1.1806
2025-06-10 18:17:51.008966,31,361.4,-0.0026,-0.0244,1.166
2025-06-10 18:17:51.108966,31,623.6,-0.0031,-0.0214,1.1713
2025-06-10 18:17:51.233294,34,623.6,-0.0043,-0.0251,1.1655
2025-06-10 18:17:51.333294,34,492.5,-0.0026,-0.0219,1.173
2025-06-10 18:17:51.433294,34,361.4,0.0,-0.0244,1.1655
2025-06-10 18:17:51.854436,40,361.4,-0.0153,-0.0239,1.1748
2025-06-10 18:17:51.954436,40,230.4,-0.0048,-0.0222,1.1657
2025-06-10 18:17:52.054436,40,361.4,-0.0019,-0.0246,1.1638
2025-06-10 18:17:52.101429,42,361.4,-0.0019,-0.0246,1.1638
2025-06-10 18:17:52.201429,42,99.3,-0.0051,-0.0224,1.1669
2025-06-10 18:17:52.301429,42,99.3,-0.0048,-0.0202,1.1542
2025-06-10 18:17:52.250068,44,99.3,-0.0048,-0.0202,1.1542
2025-06-10 18:17:52.350068,44,492.5,-0.0083,-0.0236,1.1691
2025-06-10 18:17:52.450068,44,361.4,-0.0053,-0.0246,1.1694
2025-06-10 18:17:52.407896,46,361.4,-0.0053,-0.0246,1.1694
2025-06-10 18:17:52.507896,46,492.5,-0.0029,-0.0192,1.1665
2025-06-10 18:17:52.607896,46,623.6,-0.0041,-0.0217,1.1643
2025-06-10 18:17:52.709064,49,623.6,-0.0063,-0.0234,1.1562
2025-06-10 18:17:52.809064,49,623.6,-0.0061,-0.0268,1.1652
2025-06-10 18:17:52.909064,49,361.4,-0.0029,-0.0249,1.1674
2025-06-10 18:17:53.596132,57,361.4,-0.0075,-0.0246,1.1652
2025-06-10 18:17:53.696132,57,492.5,-0.0017,-0.0212,1.1677
2025-06-10 18:17:53.796132,57,623.6,-0.0036,-0.0241,1.1679
2025-06-10 18:17:54.196810,63,361.4,-0.0024,-0.0236,1.1645
2025-06-10 18:17:54.296810,63,361.4,-0.0063,-0.0217,1.1679
2025-06-10 18:17:54.396810,63,492.5,-0.0026,-0.0249,1.1647
2025-06-10 18:17:54.292102,64,361.4,-0.0063,-0.0217,1.1679
2025-06-10 18:17:54.392102,64,492.5,-0.0026,-0.0249,1.1647
2025-06-10 18:17:54.492102,64,623.6,-0.0068,-0.0231,1.1691
2025-06-10 18:17:54.318869,65,492.5,-0.0026,-0.0249,1.1647
2025-06-10 18:17:54.418869,65,623.6,-0.0068,-0.0231,1.1691
2025-06-10 18:17:54.518869,65,492.5,-0.0061,-0.0236,1.1672
2025-06-10 18:17:54.509200,67,492.5,-0.0061,-0.0236,1.1672
2025-06-10 18:17:54.609200,67,230.4,-0.0034,-0.0244,1.1657
2025-06-10 18:17:54.709200,67,230.4,-0.0031,-0.0229,1.1667
2025-06-10 18:17:55.409157,76,623.6,-0.0114,-0.0224,1.1503
2025-06-10 18:17:55.509157,76,492.5,-0.0053,-0.0239,1.1669
2025-06-10 18:17:55.609157,76,361.4,-0.0078,-0.0239,1.164
2025-06-10 18:17:55.699617,78,361.4,-0.0078,-0.0239,1.164
2025-06-10 18:17:55.799617,78,492.5,-0.0058,-0.0207,1.1645
2025-06-10 18:17:55.899617,78,492.5,-0.0053,-0.0205,1.1655
2025-06-10 18:17:55.710870,79,492.5,-0.0058,-0.0207,1.1645
2025-06-10 18:17:55.810870,79,492.5,-0.0053,-0.0205,1.1655
2025-06-10 18:17:55.910870,79,754.6,-0.0041,-0.0261,1.1665
2025-06-10 18:17:56.295841,84,361.4,-0.0021,-0.0249,1.1711
2025-06-10 18:17:56.395841,84,492.5,-0.0063,-0.02,1.1606
2025-06-10 18:17:56.495841,84,492.5,-0.0031,-0.0209,1.1704
2025-06-10 18:17:56.351361,85,492.5,-0.0063,-0.02,1.1606
2025-06-10 18:17:56.451361,85,492.5,-0.0031,-0.0209,1.1704
2025-06-10 18:17:56.551361,85,361.4,-0.008,-0.0256,1.1652
2025-06-10 18:17:56.901709,88,623.6,-0.0117,-0.0175,1.1618
2025-06-10 18:17:57.001709,88,623.6,-0.0107,-0.007,1.1652
2025-06-10 18:17:57.101709,88,492.5,-0.0021,-0.0087,1.1643
2025-06-10 18:17:56.920405,91,623.6,-0.008,-0.0219,1.1679
2025-06-10 18:17:57.020405,91,492.5,-0.0043,-0.0139,1.1674
2025-06-10 18:17:57.120405,91,361.4,-0.0009,-0.0249,1.1694
2025-06-10 18:17:57.185874,93,361.4,-0.0009,-0.0249,1.1694
2025-06-10 18:17:57.285874,93,361.4,-0.0051,-0.0122,1.1679
2025-06-10 18:17:57.385874,93,492.5,-0.0083,-0.0222,1.1601
2025-06-10 18:17:57.247701,94,361.4,-0.0051,-0.0122,1.1679
2025-06-10 18:17:57.347701,94,492.5,-0.0083,-0.0222,1.1601
2025-06-10 18:17:57.447701,94,492.5,-0.0048,-0.018,1.1669
2025-06-10 18:17:57.807046,97,230.4,-0.0061,-0.0253,1.165
2025-06-10 18:17:57.907046,97,361.4,-0.0043,-0.0249,1.1691
2025-06-10 18:17:58.007046,97,492.5,-0.0056,-0.0224,1.1718
2025-06-10 18:17:57.840298,100,361.4,-0.0051,-0.0219,1.1669
2025-06-10 18:17:57.940298,100,492.5,-0.0026,-0.0217,1.1723
2025-06-10 18:17:58.040298,100,623.6,-0.008,-0.0207,1.1677
2025-06-10 18:17:58.118941,103,361.4,-0.0056,-0.0246,1.1655
2025-06-10 18:17:58.218941,103,361.4,-0.0056,-0.0153,1.1684
2025-06-10 18:17:58.318941,103,492.5,-0.007,-0.0219,1.1684
2025-06-10 18:17:58.697990,108,230.4,-0.0061,-0.0246,1.1655
2025-06-10 18:17:58.797990,108,99.3,-0.0053,-0.0261,1.1733
2025-06-10 18:17:58.722894,109,99.3,-0.0053,-0.0261,1.1733
2025-06-10 18:17:58.822894,109,230.4,-0.0056,-0.0249,1.1655
2025-06-10 18:17:58.922894,109,99.3,-0.0061,-0.0227,1.1682
2025-06-10 18:17:59.010506,112,-31.8,-0.0051,-0.0227,1.1645
2025-06-10 18:17:59.110506,112,361.4,-0.007,-0.0217,1.1701
2025-06-10 18:17:59.210506,112,623.6,-0.0048,-0.0249,1.1647
2025-06-10 18:17:59.332692,115,623.6,-0.0031,-0.0253,1.166
2025-06-10 18:17:59.432692,115,623.6,-0.0058,-0.0239,1.1711
2025-06-10 18:17:59.532692,115,492.5,-0.0102,-0.0239,1.1625
2025-06-10 18:17:59.609265,118,492.5,-0.0085,-0.0205,1.1687
2025-06-10 18:17:59.709265,118,361.4,-0.0058,-0.0244,1.1647
2025-06-10 18:17:59.809265,118,361.4,-0.0085,-0.0219,1.1701
2025-06-10 18:18:00.227328,124,230.4,-0.0065,-0.0246,1.1672
2025-06-10 18:18:00.327328,124,-31.8,-0.0004,-0.0244,1.1745
2025-06-10 18:18:00.427328,124,-293.9,0.0002,-0.0231,1.1657
2025-06-10 18:18:00.805473,127,-162.9,-0.0039,-0.0219,1.1694
2025-06-10 18:18:00.905473,127,230.4,-0.0024,-0.019,1.1699
2025-06-10 18:18:01.005473,127,361.4,-0.0017,-0.0207,1.165
2025-06-10 18:18:00.830866,130,361.4,-0.0017,-0.0224,1.1613
2025-06-10 18:18:00.930866,130,361.4,-0.0039,-0.0212,1.1677
2025-06-10 18:18:01.030866,130,492.5,-0.0075,-0.0214,1.1662
2025-06-10 18:18:01.107480,133,361.4,-0.0009,-0.0229,1.1669
2025-06-10 18:18:01.207480,133,492.5,-0.0021,-0.0258,1.166
2025-06-10 18:18:01.307480,133,885.7,-0.0026,-0.0249,1.1662
2025-06-10 18:18:01.447174,136,361.4,-0.0024,-0.0234,1.1679
2025-06-10 18:18:01.547174,136,99.3,-0.0061,-0.0256,1.165
2025-06-10 18:18:01.647174,136,361.4,-0.0107,-0.0202,1.1743
2025-06-10 18:18:01.710207,139,492.5,-0.0063,-0.0222,1.1621
2025-06-10 18:18:01.810207,139,492.5,-0.0046,-0.0229,1.1711
2025-06-10 18:18:01.910207,139,99.3,-0.0058,-0.0217,1.1682
2025-06-10 18:18:02.004459,140,492.5,-0.0046,-0.0229,1.1711
2025-06-10 18:18:02.104459,140,99.3,-0.0058,-0.0217,1.1682
2025-06-10 18:18:02.204459,140,-162.9,-0.0031,-0.0236,1.1628
2025-06-10 18:18:02.245892,144,361.4,-0.0026,-0.0224,1.1708
2025-06-10 18:18:02.345892,144,754.6,-0.0083,-0.0278,1.1701
2025-06-10 18:18:02.445892,144,623.6,-0.0017,-0.0236,1.1691
2025-06-10 18:18:02.347727,145,754.6,-0.0083,-0.0278,1.1701
2025-06-10 18:18:02.447727,145,623.6,-0.0017,-0.0236,1.1691
2025-06-10 18:18:02.547727,145,492.5,-0.0024,-0.0197,1.1669
2025-06-10 18:18:02.653591,148,623.6,-0.0043,-0.0163,1.166
2025-06-10 18:18:02.753591,148,623.6,-0.0004,-0.0239,1.1687
2025-06-10 18:18:02.853591,148,361.4,-0.0043,-0.0236,1.1679
2025-06-10 18:18:03.325628,155,230.4,-0.0041,-0.0234,1.1613
2025-06-10 18:18:03.425628,155,361.4,-0.0063,-0.0214,1.1625
2025-06-10 18:18:03.525628,155,492.5,-0.0051,-0.0202,1.1672
2025-06-10 18:18:03.510117,157,492.5,-0.0051,-0.0202,1.1672
2025-06-10 18:18:03.610117,157,623.6,-0.0026,-0.0222,1.1677
2025-06-10 18:18:03.710117,157,492.5,-0.0046,-0.0209,1.1684
2025-06-10 18:18:04.424717,166,623.6,-0.0075,-0.0263,1.1677
2025-06-10 18:18:04.524717,166,492.5,-0.0043,-0.0263,1.1687
2025-06-10 18:18:04.624717,166,361.4,-0.0014,-0.0263,1.1704
2025-06-10 18:18:05.008675,169,492.5,0.0021,-0.0292,1.177
2025-06-10 18:18:05.108675,169,361.4,0.0024,-0.0227,1.1728
2025-06-10 18:18:05.208675,169,99.3,-0.0051,-0.0253,1.1708
2025-06-10 18:18:05.009484,172,361.4,-0.0034,-0.0239,1.164
2025-06-10 18:18:05.109484,172,361.4,-0.0007,-0.0246,1.1682
2025-06-10 18:18:05.209484,172,230.4,-0.0012,-0.0236,1.1667
2025-06-10 18:18:05.929814,181,623.6,-0.0053,-0.0214,1.1699
2025-06-10 18:18:06.029814,181,754.6,-0.0063,-0.0261,1.1699
2025-06-10 18:18:06.129814,181,623.6,-0.0048,-0.0231,1.166
2025-06-10 18:18:06.263298,184,623.6,-0.0056,-0.0241,1.1677
2025-06-10 18:18:06.363298,184,623.6,-0.0046,-0.0244,1.1643
2025-06-10 18:18:06.463298,184,492.5,-0.0039,-0.0212,1.1652
2025-06-10 18:18:06.866781,190,361.4,-0.0036,-0.0236,1.1667
2025-06-10 18:18:06.966781,190,361.4,-0.0029,-0.0212,1.166
2025-06-10 18:18:07.066781,190,230.4,0.0002,-0.0219,1.1633
2025-06-10 18:18:09.308672,215,623.6,-0.0048,-0.0251,1.1711
2025-06-10 18:18:09.408672,215,492.5,-0.0036,-0.0187,1.1618
2025-06-10 18:18:09.508672,215,-31.8,-0.0058,-0.0224,1.1584
2025-06-10 18:18:09.510408,217,-31.8,-0.0058,-0.0224,1.1584
2025-06-10 18:18:09.610408,217,230.4,-0.0026,-0.02,1.165
2025-06-10 18:18:09.710408,217,754.6,-0.0061,-0.0183,1.1748
2025-06-10 18:18:09.853668,220,754.6,-0.0058,-0.0229,1.1667
2025-06-10 18:18:09.953668,220,623.6,-0.0051,-0.0236,1.166
2025-06-10 18:18:10.053668,220,361.4,-0.0026,-0.0241,1.1635
2025-06-10 18:18:10.108452,223,492.5,-0.0021,-0.0256,1.1689
2025-06-10 18:18:10.208452,223,623.6,-0.0063,-0.0229,1.166
2025-06-10 18:18:10.308452,223,754.6,-0.0058,-0.0214,1.1645
2025-06-10 18:18:11.177703,232,623.6,-0.0029,-0.0187,1.1669
2025-06-10 18:18:11.277703,232,361.4,-0.0061,-0.0246,1.1652
2025-06-10 18:18:11.377703,232,492.5,-0.0029,-0.0244,1.1657
2025-06-10 18:18:11.352700,235,754.6,-0.0043,-0.0234,1.1677
2025-06-10 18:18:11.452700,235,623.6,-0.0051,-0.0268,1.1699
2025-06-10 18:18:11.552700,235,361.4,-0.0051,-0.0227,1.1699
2025-06-10 18:18:11.650046,238,492.5,-0.0102,-0.0236,1.1706
2025-06-10 18:18:11.750046,238,885.7,-0.0063,-0.0256,1.1679
2025-06-10 18:18:11.850046,238,885.7,-0.0078,-0.0209,1.1701
2025-06-10 18:18:11.897674,240,885.7,-0.0078,-0.0209,1.1701
2025-06-10 18:18:11.997674,240,885.7,-0.0026,-0.0244,1.1696
2025-06-10 18:18:12.097674,240,623.6,-0.0068,-0.0202,1.1708
2025-06-10 18:18:11.908644,241,885.7,-0.0026,-0.0244,1.1696
2025-06-10 18:18:12.008644,241,623.6,-0.0068,-0.0202,1.1708
2025-06-10 18:18:12.108644,241,230.4,-0.0051,-0.0241,1.1657
2025-06-10 18:18:13.229174,254,361.4,-0.0078,-0.0217,1.1674
2025-06-10 18:18:13.329174,254,99.3,-0.0073,-0.0214,1.173
2025-06-10 18:18:13.429174,254,492.5,-0.0065,-0.0246,1.1604
2025-06-10 18:18:14.910223,15,361.4,-0.0065,-0.0229,1.1699
2025-06-10 18:18:15.010223,15,361.4,-0.0041,-0.0241,1.1657
2025-06-10 18:18:15.110223,15,623.6,-0.0036,-0.0214,1.1652
2025-06-10 18:18:15.548753,21,230.4,-0.0017,-0.0224,1.1721
2025-06-10 18:18:15.648753,21,230.4,-0.0024,-0.02,1.1682
2025-06-10 18:18:15.748753,21,230.4,-0.0029,-0.0239,1.1696
2025-06-10 18:18:16.408227,30,623.6,-0.0056,-0.0214,1.1721
2025-06-10 18:18:16.508227,30,492.5,-0.0043,-0.0202,1.1696
2025-06-10 18:18:16.608227,30,361.4,-0.0041,-0.0236,1.1691
2025-06-10 18:18:16.708801,33,361.4,-0.0061,-0.0224,1.1635
2025-06-10 18:18:16.808801,33,623.6,-0.0043,-0.0214,1.1657
2025-06-10 18:18:16.908801,33,361.4,-0.0058,-0.0219,1.1713
2025-06-10 18:18:17.051517,36,361.4,-0.0043,-0.0268,1.1669
2025-06-10 18:18:17.151517,36,623.6,-0.0068,-0.0227,1.1628
2025-06-10 18:18:17.251517,36,361.4,-0.0097,-0.0268,1.1657
2025-06-10 18:18:17.650721,42,623.6,-0.0014,-0.0234,1.165
2025-06-10 18:18:17.750721,42,361.4,-0.0075,-0.0253,1.1669
2025-06-10 18:18:17.850721,42,361.4,-0.0036,-0.0209,1.1652
2025-06-10 18:18:18.208465,48,361.4,-0.0075,-0.0258,1.1613
2025-06-10 18:18:18.308465,48,230.4,-0.0048,-0.0217,1.1674
2025-06-10 18:18:18.408465,48,492.5,-0.0034,-0.0244,1.1652
2025-06-10 18:18:18.807872,54,754.6,-0.0068,-0.0212,1.1679
2025-06-10 18:18:18.907872,54,623.6,-0.0019,-0.019,1.1699
2025-06-10 18:18:19.007872,54,623.6,-0.0012,-0.0249,1.1652
2025-06-10 18:18:19.108166,56,623.6,-0.0012,-0.0249,1.1652
2025-06-10 18:18:19.208166,56,754.6,-0.0053,-0.0258,1.1704
2025-06-10 18:18:19.308166,56,361.4,-0.0046,-0.0234,1.166
2025-06-10 18:18:19.118662,57,754.6,-0.0053,-0.0258,1.1704
2025-06-10 18:18:19.218662,57,361.4,-0.0046,-0.0234,1.166
2025-06-10 18:18:19.318662,57,492.5,-0.0056,-0.0222,1.166
2025-06-10 18:18:19.401120,59,492.5,-0.0056,-0.0222,1.166
2025-06-10 18:18:19.501120,59,623.6,-0.0014,-0.0224,1.1665
2025-06-10 18:18:19.601120,59,361.4,-0.0029,-0.0197,1.1696
2025-06-10 18:18:20.310700,69,361.4,-0.0078,-0.0214,1.1669
2025-06-10 18:18:20.410700,69,492.5,-0.0063,-0.0241,1.1674
2025-06-10 18:18:20.510700,69,361.4,-0.0004,-0.0253,1.1711
2025-06-10 18:18:20.607764,72,230.4,-0.0029,-0.0224,1.1743
2025-06-10 18:18:20.707764,72,361.4,-0.0019,-0.0197,1.1684
2025-06-10 18:18:20.807764,72,623.6,0.0017,-0.0249,1.1752
2025-06-10 18:18:20.949783,75,754.6,-0.0041,-0.0219,1.1674
2025-06-10 18:18:21.049783,75,492.5,-0.0073,-0.0244,1.1628
2025-06-10 18:18:21.149783,75,230.4,-0.0095,-0.0246,1.1708
2025-06-10 18:18:21.498172,78,230.4,0.0002,-0.0236,1.1669
2025-06-10 18:18:21.598172,78,361.4,-0.0048,-0.018,1.1699
2025-06-10 18:18:21.698172,78,492.5,-0.0063,-0.0217,1.1657
2025-06-10 18:18:21.498717,80,492.5,-0.0063,-0.0217,1.1657
2025-06-10 18:18:21.598717,80,230.4,-0.0031,-0.0258,1.1647
2025-06-10 18:18:21.698717,80,361.4,-0.0034,-0.0244,1.1667
2025-06-10 18:18:21.549787,81,230.4,-0.0031,-0.0258,1.1647
2025-06-10 18:18:21.649787,81,361.4,-0.0034,-0.0244,1.1667
2025-06-10 18:18:21.749787,81,361.4,-0.0024,-0.0231,1.1726
2025-06-10 18:18:22.168981,87,885.7,-0.0051,-0.0195,1.1701
2025-06-10 18:18:22.268981,87,623.6,-0.0031,-0.0212,1.1738
2025-06-10 18:18:22.368981,87,492.5,-0.0031,-0.0222,1.1711
2025-06-10 18:18:22.407743,90,492.5,-0.0078,-0.0231,1.1733
2025-06-10 18:18:22.507743,90,361.4,-0.0017,-0.0256,1.1704
2025-06-10 18:18:22.607743,90,492.5,-0.0046,-0.0236,1.1677
2025-06-10 18:18:22.752152,93,623.6,-0.0053,-0.0246,1.1687
2025-06-10 18:18:22.852152,93,361.4,-0.0012,-0.0253,1.1711
2025-06-10 18:18:22.952152,93,492.5,-0.0043,-0.0229,1.1665
2025-06-10 18:18:23.008962,95,492.5,-0.0043,-0.0229,1.1665
2025-06-10 18:18:23.108962,95,623.6,-0.0065,-0.0202,1.1655
2025-06-10 18:18:23.208962,95,492.5,-0.0043,-0.0224,1.1645
2025-06-10 18:18:23.009786,96,623.6,-0.0065,-0.0202,1.1655
2025-06-10 18:18:23.109786,96,492.5,-0.0043,-0.0224,1.1645
2025-06-10 18:18:23.209786,96,361.4,-0.0036,-0.0224,1.1704
2025-06-10 18:18:23.307730,99,754.6,-0.0068,-0.0236,1.1728
2025-06-10 18:18:23.407730,99,492.5,-0.0056,-0.0268,1.1721
2025-06-10 18:18:23.507730,99,230.4,-0.0063,-0.0253,1.1691
2025-06-10 18:18:24.818585,113,361.4,-0.0039,-0.0263,1.166
2025-06-10 18:18:24.918585,113,623.6,-0.0061,-0.0224,1.1721
2025-06-10 18:18:25.018585,113,361.4,-0.0004,-0.0241,1.1738
2025-06-10 18:18:25.456108,120,754.6,-0.0046,-0.0202,1.1701
2025-06-10 18:18:25.556108,120,492.5,-0.0036,-0.0249,1.1684
2025-06-10 18:18:25.656108,120,230.4,-0.0061,-0.0224,1.1662
2025-06-10 18:18:25.710145,123,230.4,-0.0075,-0.0214,1.166
2025-06-10 18:18:25.810145,123,623.6,-0.0034,-0.0268,1.1728
2025-06-10 18:18:25.910145,123,754.6,-0.008,-0.0234,1.1696
2025-06-10 18:18:26.059457,126,492.5,-0.0017,-0.0329,1.1618
2025-06-10 18:18:26.159457,126,492.5,-0.0029,-0.0231,1.1679
2025-06-10 18:18:26.259457,126,361.4,-0.0034,-0.0261,1.1699
2025-06-10 18:18:26.594968,129,361.4,-0.008,-0.0222,1.165
2025-06-10 18:18:26.694968,129,623.6,-0.0053,-0.0219,1.1694
2025-06-10 18:18:26.794968,129,623.6,-0.0061,-0.0205,1.1682
2025-06-10 18:18:26.609796,132,885.7,-0.0056,-0.0229,1.164
2025-06-10 18:18:26.709796,132,885.7,-0.0053,-0.0192,1.1716
2025-06-10 18:18:26.809796,132,623.6,-0.0024,-0.0207,1.1667
2025-06-10 18:18:27.109998,137,1016.8,-0.0087,-0.0244,1.1687
2025-06-10 18:18:27.209998,137,885.7,-0.0051,-0.0205,1.1691
2025-06-10 18:18:27.309998,137,754.6,-0.0034,-0.0244,1.1674
2025-06-10 18:18:27.493993,140,754.6,-0.007,-0.0231,1.1665
2025-06-10 18:18:27.593993,140,623.6,-0.0026,-0.0249,1.1711
2025-06-10 18:18:27.693993,140,492.5,-0.0063,-0.0253,1.1689
2025-06-10 18:18:27.661320,142,492.5,-0.0063,-0.0253,1.1689
2025-06-10 18:18:27.761320,142,623.6,-0.0073,-0.0224,1.1677
2025-06-10 18:18:27.861320,142,885.7,-0.0041,-0.0239,1.1657
2025-06-10 18:18:27.810057,144,885.7,-0.0041,-0.0239,1.1657
2025-06-10 18:18:27.910057,144,754.6,-0.0034,-0.0192,1.1674
2025-06-10 18:18:28.010057,144,754.6,-0.0073,-0.0234,1.1694
2025-06-10 18:18:28.489788,150,623.6,-0.0029,-0.0263,1.1706
2025-06-10 18:18:28.589788,150,754.6,-0.0034,-0.0209,1.1628
2025-06-10 18:18:28.689788,150,623.6,-0.0065,-0.0229,1.1689
2025-06-10 18:18:28.507934,151,754.6,-0.0034,-0.0209,1.1628
2025-06-10 18:18:28.607934,151,623.6,-0.0065,-0.0229,1.1689
2025-06-10 18:18:28.707934,151,361.4,-0.0048,-0.0231,1.1669
2025-06-10 18:18:29.010090,156,623.6,-0.0031,-0.0212,1.1718
2025-06-10 18:18:29.110090,156,623.6,-0.0039,-0.0231,1.1696
2025-06-10 18:18:29.210090,156,885.7,-0.0019,-0.0239,1.1652
2025-06-10 18:18:29.209881,158,885.7,-0.0019,-0.0239,1.1652
2025-06-10 18:18:29.309881,158,623.6,-0.0036,-0.0234,1.1674
2025-06-10 18:18:29.409881,158,492.5,-0.0058,-0.0229,1.1708
2025-06-10 18:18:29.356491,159,623.6,-0.0036,-0.0234,1.1674
2025-06-10 18:18:29.456491,159,492.5,-0.0058,-0.0229,1.1708
2025-06-10 18:18:29.556491,159,492.5,-0.0075,-0.0227,1.1672
2025-06-10 18:18:29.455656,160,492.5,-0.0058,-0.0229,1.1708
2025-06-10 18:18:29.555656,160,492.5,-0.0075,-0.0227,1.1672
2025-06-10 18:18:29.655656,160,492.5,-0.0065,-0.0249,1.1684
2025-06-10 18:18:29.508544,161,492.5,-0.0075,-0.0227,1.1672
2025-06-10 18:18:29.608544,161,492.5,-0.0065,-0.0249,1.1684
2025-06-10 18:18:29.708544,161,754.6,-0.0036,-0.0207,1.1696
2025-06-10 18:18:29.652836,162,492.5,-0.0065,-0.0249,1.1684
2025-06-10 18:18:29.752836,162,754.6,-0.0036,-0.0207,1.1696
2025-06-10 18:18:29.852836,162,1016.8,-0.0053,-0.0229,1.1706
2025-06-10 18:18:29.803536,163,754.6,-0.0036,-0.0207,1.1696
2025-06-10 18:18:29.903536,163,1016.8,-0.0053,-0.0229,1.1706
2025-06-10 18:18:30.003536,163,885.7,-0.009,-0.0236,1.1711
2025-06-10 18:18:29.849206,164,1016.8,-0.0053,-0.0229,1.1706
2025-06-10 18:18:29.949206,164,885.7,-0.009,-0.0236,1.1711
2025-06-10 18:18:30.049206,164,623.6,-0.0075,-0.0268,1.1701
2025-06-10 18:18:30.009010,166,623.6,-0.0075,-0.0268,1.1701
2025-06-10 18:18:30.109010,166,623.6,-0.0061,-0.0266,1.163
2025-06-10 18:18:30.209010,166,623.6,-0.0031,-0.0202,1.1684
2025-06-10 18:18:30.209197,168,623.6,-0.0031,-0.0202,1.1684
2025-06-10 18:18:30.309197,168,230.4,-0.0051,-0.0219,1.1674
2025-06-10 18:18:30.409197,168,492.5,-0.0043,-0.0249,1.1674
2025-06-10 18:18:30.858074,174,361.4,-0.0061,-0.0207,1.1647
2025-06-10 18:18:30.958074,174,492.5,-0.0075,-0.017,1.1682
2025-06-10 18:18:31.058074,174,754.6,-0.0051,-0.0187,1.1701
2025-06-10 18:18:30.947118,175,492.5,-0.0075,-0.017,1.1682
2025-06-10 18:18:31.047118,175,754.6,-0.0051,-0.0187,1.1701
2025-06-10 18:18:31.147118,175,623.6,-0.0058,-0.0214,1.1711
2025-06-10 18:18:31.009428,176,754.6,-0.0051,-0.0187,1.1701
2025-06-10 18:18:31.109428,176,623.6,-0.0058,-0.0214,1.1711
2025-06-10 18:18:31.209428,176,361.4,-0.0058,-0.018,1.1687
2025-06-10 18:18:31.147691,177,623.6,-0.0058,-0.0214,1.1711
2025-06-10 18:18:31.247691,177,361.4,-0.0058,-0.018,1.1687
2025-06-10 18:18:31.347691,177,623.6,-0.0041,-0.0236,1.1694
2025-06-10 18:18:31.560436,181,492.5,-0.0024,-0.0268,1.1687
2025-06-10 18:18:31.660436,181,492.5,-0.0065,-0.0244,1.1682
2025-06-10 18:18:31.760436,181,623.6,-0.0029,-0.0227,1.1677
2025-06-10 18:18:31.608636,182,492.5,-0.0065,-0.0244,1.1682
2025-06-10 18:18:31.708636,182,623.6,-0.0029,-0.0227,1.1677
2025-06-10 18:18:31.808636,182,623.6,-0.0063,-0.0239,1.1718
2025-06-10 18:18:31.762659,183,623.6,-0.0029,-0.0227,1.1677
2025-06-10 18:18:31.862659,183,623.6,-0.0063,-0.0239,1.1718
2025-06-10 18:18:31.962659,183,623.6,-0.0051,-0.0273,1.1652
2025-06-10 18:18:32.155153,187,754.6,-0.0104,-0.0219,1.1708
2025-06-10 18:18:32.255153,187,623.6,-0.0065,-0.0231,1.1652
2025-06-10 18:18:32.355153,187,623.6,-0.0046,-0.0205,1.1713
2025-06-10 18:18:32.499268,190,623.6,-0.0075,-0.0244,1.173
2025-06-10 18:18:32.599268,190,492.5,-0.0051,-0.0229,1.165
2025-06-10 18:18:32.699268,190,492.5,-0.007,-0.0234,1.1669
2025-06-10 18:18:32.699282,192,492.5,-0.007,-0.0234,1.1669
2025-06-10 18:18:32.799282,192,99.3,-0.0056,-0.0251,1.1684
2025-06-10 18:18:32.899282,192,99.3,-0.0087,-0.0195,1.1652
2025-06-10 18:18:33.021353,196,361.4,-0.0053,-0.0212,1.1616
2025-06-10 18:18:33.121353,196,361.4,0.0007,-0.0217,1.1657
2025-06-10 18:18:33.221353,196,361.4,-0.0031,-0.0236,1.1718
2025-06-10 18:18:33.109674,197,361.4,0.0007,-0.0217,1.1657
2025-06-10 18:18:33.209674,197,361.4,-0.0031,-0.0236,1.1718
2025-06-10 18:18:33.309674,197,99.3,-0.0012,-0.0219,1.1669
2025-06-10 18:18:33.307085,199,99.3,-0.0012,-0.0219,1.1669
2025-06-10 18:18:33.407085,199,230.4,-0.0063,-0.0224,1.1713
2025-06-10 18:18:33.507085,199,492.5,-0.0051,-0.0219,1.1687
2025-06-10 18:18:33.449047,200,230.4,-0.0063,-0.0224,1.1713
2025-06-10 18:18:33.549047,200,492.5,-0.0051,-0.0219,1.1687
2025-06-10 18:18:33.649047,200,492.5,-0.0051,-0.0185,1.1672
2025-06-10 18:18:33.731618,203,623.6,-0.0024,-0.0205,1.1657
2025-06-10 18:18:33.831618,203,492.5,-0.008,-0.0236,1.1701
2025-06-10 18:18:33.931618,203,361.4,-0.0058,-0.0231,1.1638
2025-06-10 18:18:34.098502,206,361.4,-0.008,-0.0222,1.1647
2025-06-10 18:18:34.198502,206,230.4,-0.0046,-0.0253,1.1652
2025-06-10 18:18:34.298502,206,361.4,-0.0073,-0.0185,1.1682
2025-06-10 18:18:34.661911,212,623.6,-0.0043,-0.0207,1.1665
2025-06-10 18:18:34.761911,212,361.4,-0.0043,-0.0212,1.1674
2025-06-10 18:18:34.861911,212,492.5,-0.0056,-0.02,1.1684
2025-06-10 18:18:34.946894,215,361.4,-0.0056,-0.0231,1.1677
2025-06-10 18:18:35.046894,215,754.6,-0.0053,-0.0195,1.1625
2025-06-10 18:18:35.008101,216,754.6,-0.0053,-0.0195,1.1625
2025-06-10 18:18:35.108101,216,623.6,-0.0051,-0.0253,1.1706
2025-06-10 18:18:35.208101,216,230.4,-0.0034,-0.0219,1.1691
2025-06-10 18:18:35.447663,220,623.6,-0.0046,-0.0224,1.165
2025-06-10 18:18:35.547663,220,361.4,-0.0009,-0.0231,1.1604
2025-06-10 18:18:35.647663,220,99.3,-0.0058,-0.0231,1.1674
2025-06-10 18:18:35.802851,223,230.4,-0.0092,-0.0229,1.1699
2025-06-10 18:18:35.902851,223,492.5,-0.0053,-0.0224,1.1682
2025-06-10 18:18:36.002851,223,754.6,-0.0051,-0.0253,1.1733
2025-06-10 18:18:35.948735,225,754.6,-0.0051,-0.0253,1.1733
2025-06-10 18:18:36.048735,225,885.7,-0.0039,-0.0234,1.1672
2025-06-10 18:18:36.148735,225,754.6,-0.0097,-0.02,1.1674
2025-06-10 18:18:36.051806,226,885.7,-0.0039,-0.0234,1.1672
2025-06-10 18:18:36.151806,226,754.6,-0.0097,-0.02,1.1674
2025-06-10 18:18:36.251806,226,623.6,-0.0046,-0.0205,1.1667
2025-06-10 18:18:36.108476,227,754.6,-0.0097,-0.02,1.1674
2025-06-10 18:18:36.208476,227,623.6,-0.0046,-0.0205,1.1667
2025-06-10 18:18:36.308476,227,623.6,-0.0046,-0.0214,1.1696
2025-06-10 18:18:36.247612,228,623.6,-0.0046,-0.0205,1.1667
2025-06-10 18:18:36.347612,228,623.6,-0.0046,-0.0214,1.1696
2025-06-10 18:18:36.447612,228,361.4,-0.0024,-0.0217,1.1665
2025-06-10 18:18:36.609860,232,754.6,-0.0009,-0.0219,1.1662
2025-06-10 18:18:36.709860,232,623.6,-0.0078,-0.0207,1.1638
2025-06-10 18:18:36.809860,232,492.5,-0.0031,-0.0219,1.165
2025-06-10 18:18:37.152313,237,492.5,-0.0036,-0.027,1.1665
2025-06-10 18:18:37.252313,237,754.6,-0.0048,-0.0202,1.163
2025-06-10 18:18:37.352313,237,492.5,-0.0019,-0.0202,1.1647
2025-06-10 18:18:37.318676,239,492.5,-0.0019,-0.0202,1.1647
2025-06-10 18:18:37.418676,239,99.3,-0.0021,-0.0202,1.1726
2025-06-10 18:18:37.518676,239,99.3,-0.0031,-0.0236,1.1689
2025-06-10 18:18:37.450004,240,99.3,-0.0021,-0.0202,1.1726
2025-06-10 18:18:37.550004,240,99.3,-0.0031,-0.0236,1.1689
2025-06-10 18:18:37.650004,240,99.3,-0.0043,-0.0256,1.1689
2025-06-10 18:18:37.552495,241,99.3,-0.0031,-0.0236,1.1689
2025-06-10 18:18:37.652495,241,99.3,-0.0043,-0.0256,1.1689
2025-06-10 18:18:37.752495,241,492.5,-0.0065,-0.0207,1.1723
2025-06-10 18:18:37.647815,242,99.3,-0.0043,-0.0256,1.1689
2025-06-10 18:18:37.747815,242,492.5,-0.0065,-0.0207,1.1723
2025-06-10 18:18:37.847815,242,492.5,-0.0092,-0.0219,1.1677
2025-06-10 18:18:37.808619,243,492.5,-0.0065,-0.0207,1.1723
2025-06-10 18:18:37.908619,243,492.5,-0.0092,-0.0219,1.1677
2025-06-10 18:18:38.008619,243,361.4,-0.0061,-0.0249,1.1711
2025-06-10 18:18:37.809467,244,492.5,-0.0092,-0.0219,1.1677
2025-06-10 18:18:37.909467,244,361.4,-0.0061,-0.0249,1.1711
2025-06-10 18:18:38.009467,244,361.4,-0.008,-0.0246,1.1699
2025-06-10 18:18:38.009486,246,361.4,-0.008,-0.0246,1.1699
2025-06-10 18:18:38.109486,246,361.4,-0.0075,-0.0256,1.1726
2025-06-10 18:18:38.209486,246,230.4,-0.0051,-0.0268,1.1713
2025-06-10 18:18:38.109171,247,361.4,-0.0075,-0.0256,1.1726
2025-06-10 18:18:38.209171,247,230.4,-0.0051,-0.0268,1.1713
2025-06-10 18:18:38.309171,247,230.4,-0.0051,-0.0246,1.1684
2025-06-10 18:18:38.519799,251,361.4,-0.0043,-0.0239,1.1699
2025-06-10 18:18:38.619799,251,754.6,-0.0041,-0.027,1.1743
2025-06-10 18:18:38.719799,251,754.6,-0.0048,-0.0256,1.164
2025-06-10 18:18:38.651624,252,754.6,-0.0041,-0.027,1.1743
2025-06-10 18:18:38.751624,252,754.6,-0.0048,-0.0256,1.164
2025-06-10 18:18:38.851624,252,754.6,-0.0036,-0.0222,1.1718
2025-06-10 18:18:38.855399,254,754.6,-0.0036,-0.0222,1.1718
2025-06-10 18:18:38.955399,254,754.6,-0.0063,-0.0187,1.1723
2025-06-10 18:18:39.055399,254,754.6,-0.0085,-0.0234,1.184
2025-06-10 18:18:38.951831,255,754.6,-0.0063,-0.0187,1.1723
2025-06-10 18:18:39.051831,255,754.6,-0.0085,-0.0234,1.184
2025-06-10 18:18:39.151831,255,754.6,-0.0041,-0.0192,1.1691
2025-06-10 18:18:39.106636,0,754.6,-0.0085,-0.0234,1.184
2025-06-10 18:18:39.206636,0,754.6,-0.0041,-0.0192,1.1691
2025-06-10 18:18:39.306636,0,623.6,-0.0002,-0.0266,1.173
2025-06-10 18:18:39.122121,1,754.6,-0.0041,-0.0192,1.1691
2025-06-10 18:18:39.222121,1,623.6,-0.0002,-0.0266,1.173
2025-06-10 18:18:39.322121,1,754.6,-0.0026,-0.0256,1.1657
2025-06-10 18:18:39.208603,2,623.6,-0.0002,-0.0266,1.173
2025-06-10 18:18:39.308603,2,754.6,-0.0026,-0.0256,1.1657
2025-06-10 18:18:39.408603,2,1016.8,-0.0039,-0.0224,1.1621
2025-06-10 18:18:39.489329,4,1016.8,-0.0039,-0.0224,1.1621
2025-06-10 18:18:39.589329,4,1016.8,-0.009,-0.0205,1.1679
2025-06-10 18:18:39.689329,4,754.6,-0.0031,-0.0234,1.1667
2025-06-10 18:18:39.809823,8,492.5,-0.0061,-0.0251,1.1684
2025-06-10 18:18:39.909823,8,885.7,-0.0061,-0.0266,1.1689
2025-06-10 18:18:40.009823,8,1016.8,-0.0046,-0.0253,1.1674
2025-06-10 18:18:40.215574,11,623.6,-0.0078,-0.0224,1.1662
2025-06-10 18:18:40.315574,11,361.4,-0.0085,-0.0234,1.1713
2025-06-10 18:18:40.415574,11,361.4,-0.0075,-0.02,1.1718
2025-06-10 18:18:40.309511,13,361.4,-0.0075,-0.02,1.1718
2025-06-10 18:18:40.409511,13,623.6,-0.0046,-0.0241,1.1723
2025-06-10 18:18:40.509511,13,492.5,-0.0053,-0.019,1.1589
2025-06-10 18:18:40.672366,15,492.5,-0.0053,-0.019,1.1589
2025-06-10 18:18:40.772366,15,623.6,-0.0004,-0.0229,1.1599
2025-06-10 18:18:40.872366,15,754.6,-0.0039,-0.0178,1.1699
2025-06-10 18:18:40.747851,17,754.6,-0.0039,-0.0178,1.1699
2025-06-10 18:18:40.847851,17,492.5,-0.0078,-0.0195,1.1723
2025-06-10 18:18:40.947851,17,230.4,-0.008,-0.0258,1.1721
2025-06-10 18:18:40.955842,19,230.4,-0.008,-0.0258,1.1721
2025-06-10 18:18:41.055842,19,623.6,-0.0043,-0.0249,1.1713
2025-06-10 18:18:41.155842,19,754.6,-0.0017,-0.0273,1.1711
2025-06-10 18:18:41.006961,20,623.6,-0.0043,-0.0249,1.1713
2025-06-10 18:18:41.106961,20,754.6,-0.0017,-0.0273,1.1711
2025-06-10 18:18:41.206961,20,754.6,-0.0021,-0.0244,1.1638
2025-06-10 18:18:41.310367,23,1016.8,-0.0017,-0.0241,1.1721
2025-06-10 18:18:41.410367,23,623.6,-0.007,-0.0239,1.1704
2025-06-10 18:18:41.510367,23,361.4,-0.0073,-0.0224,1.1638
2025-06-10 18:18:41.407914,24,623.6,-0.007,-0.0239,1.1704
2025-06-10 18:18:41.507914,24,361.4,-0.0073,-0.0224,1.1638
2025-06-10 18:18:41.607914,24,492.5,-0.0043,-0.0231,1.1667
2025-06-10 18:18:41.563672,25,361.4,-0.0073,-0.0224,1.1638
2025-06-10 18:18:41.663672,25,492.5,-0.0043,-0.0231,1.1667
2025-06-10 18:18:41.763672,25,361.4,-0.007,-0.0261,1.1628
2025-06-10 18:18:41.734153,27,361.4,-0.007,-0.0261,1.1628
2025-06-10 18:18:41.834153,27,99.3,-0.008,-0.0229,1.1662
2025-06-10 18:18:41.934153,27,230.4,-0.0048,-0.0224,1.1623
2025-06-10 18:18:43.716030,47,623.6,-0.0041,-0.0185,1.1708
2025-06-10 18:18:43.816030,47,623.6,-0.0061,-0.0227,1.1674
2025-06-10 18:18:43.916030,47,623.6,-0.0029,-0.0212,1.163
2025-06-10 18:18:44.049902,50,492.5,-0.0031,-0.0246,1.1665
2025-06-10 18:18:44.149902,50,623.6,-0.0051,-0.0217,1.1655
2025-06-10 18:18:44.249902,50,492.5,-0.0053,-0.0209,1.1708
2025-06-10 18:18:44.909799,59,230.4,-0.0029,-0.0224,1.1662
2025-06-10 18:18:45.009799,59,492.5,-0.0061,-0.0227,1.1655
2025-06-10 18:18:45.109799,59,623.6,-0.0058,-0.0256,1.1635
2025-06-10 18:18:45.268262,62,623.6,-0.0031,-0.0224,1.1682
2025-06-10 18:18:45.368262,62,885.7,-0.0073,-0.0217,1.1699
2025-06-10 18:18:45.468262,62,1147.9,-0.0048,-0.0192,1.1711
2025-06-10 18:18:45.819057,68,492.5,-0.0039,-0.0202,1.1706
2025-06-10 18:18:45.919057,68,492.5,-0.0046,-0.0231,1.1726
2025-06-10 18:18:46.019057,68,623.6,-0.0026,-0.0249,1.1689
2025-06-10 18:18:46.145417,71,623.6,-0.0051,-0.0224,1.1674
2025-06-10 18:18:46.245417,71,623.6,-0.0007,-0.0217,1.163
2025-06-10 18:18:46.345417,71,754.6,-0.0026,-0.0249,1.1647
2025-06-10 18:18:47.054299,80,754.6,-0.0036,-0.0236,1.1694
2025-06-10 18:18:47.154299,80,623.6,-0.0041,-0.0249,1.1628
2025-06-10 18:18:47.254299,80,492.5,-0.0029,-0.0249,1.1645
2025-06-10 18:18:47.306702,83,492.5,-0.0095,-0.0214,1.1608
2025-06-10 18:18:47.406702,83,492.5,-0.0046,-0.0241,1.1679
2025-06-10 18:18:47.506702,83,623.6,-0.0058,-0.0231,1.1691
2025-06-10 18:18:48.052725,89,492.5,-0.0004,-0.0275,1.1696
2025-06-10 18:18:48.152725,89,492.5,0.0007,-0.0207,1.1667
2025-06-10 18:18:48.252725,89,885.7,-0.0051,-0.0229,1.1662
2025-06-10 18:18:48.053421,90,492.5,0.0007,-0.0207,1.1667
2025-06-10 18:18:48.153421,90,885.7,-0.0051,-0.0229,1.1662
2025-06-10 18:18:48.253421,90,885.7,-0.0063,-0.02,1.1694
2025-06-10 18:18:48.810008,98,754.6,-0.0034,-0.0285,1.1723
2025-06-10 18:18:48.910008,98,361.4,-0.0043,-0.0231,1.1594
2025-06-10 18:18:49.010008,98,623.6,-0.0036,-0.0205,1.1701
2025-06-10 18:18:49.434325,104,885.7,-0.0051,-0.0244,1.1723
2025-06-10 18:18:49.534325,104,754.6,-0.0075,-0.0244,1.1687
2025-06-10 18:18:49.634325,104,754.6,-0.0039,-0.0234,1.166
2025-06-10 18:18:49.709550,107,1016.8,-0.0051,-0.0253,1.1706
2025-06-10 18:18:49.809550,107,885.7,-0.0048,-0.0249,1.1625
2025-06-10 18:18:49.909550,107,492.5,-0.0058,-0.0229,1.175
2025-06-10 18:18:50.349656,113,623.6,-0.0061,-0.0192,1.1494
2025-06-10 18:18:50.449656,113,1147.9,0.0014,-0.0234,1.1757
2025-06-10 18:18:50.549656,113,1147.9,0.008,-0.0192,1.1708
2025-06-10 18:18:51.267247,122,754.6,-0.0031,-0.0236,1.166
2025-06-10 18:18:51.367247,122,754.6,-0.0021,-0.0244,1.1721
2025-06-10 18:18:51.467247,122,623.6,-0.0009,-0.0207,1.1657
2025-06-10 18:18:51.577009,125,1016.8,-0.0031,-0.0209,1.1687
2025-06-10 18:18:51.677009,125,754.6,-0.0019,-0.0253,1.1677
2025-06-10 18:18:51.777009,125,623.6,-0.0017,-0.0229,1.1599
2025-06-10 18:18:52.108641,131,361.4,-0.0031,-0.0246,1.1696
2025-06-10 18:18:52.208641,131,492.5,-0.0043,-0.0241,1.1704
2025-06-10 18:18:52.308641,131,623.6,-0.0012,-0.027,1.1691
2025-06-10 18:18:52.454349,134,623.6,-0.0007,-0.0229,1.1721
2025-06-10 18:18:52.554349,134,754.6,-0.0014,-0.0256,1.1643
2025-06-10 18:18:52.654349,134,885.7,-0.0034,-0.0253,1.1726
2025-06-10 18:18:53.309571,143,754.6,-0.008,-0.0212,1.1696
2025-06-10 18:18:53.409571,143,623.6,-0.0078,-0.0202,1.173
2025-06-10 18:18:53.509571,143,885.7,-0.0021,-0.0192,1.1672
2025-06-10 18:18:53.790929,147,754.6,-0.0031,-0.0224,1.1677
2025-06-10 18:18:53.890929,147,754.6,-0.0109,-0.0288,1.1391
2025-06-10 18:18:53.990929,147,754.6,-0.0053,-0.0256,1.1662
2025-06-10 18:18:53.908210,149,754.6,-0.0053,-0.0256,1.1662
2025-06-10 18:18:54.008210,149,754.6,-0.0051,-0.0266,1.1635
2025-06-10 18:18:54.108210,149,1016.8,-0.0085,-0.0251,1.1689
2025-06-10 18:18:54.209068,152,1016.8,-0.0068,-0.0251,1.1691
2025-06-10 18:18:54.309068,152,492.5,-0.0041,-0.0202,1.165
2025-06-10 18:18:54.409068,152,492.5,-0.0058,-0.0214,1.165
2025-06-10 18:18:55.147565,161,623.6,0.0021,-0.0263,1.1726
2025-06-10 18:18:55.247565,161,623.6,0.0007,-0.0244,1.164
2025-06-10 18:18:55.347565,161,623.6,-0.0048,-0.0212,1.1667
2025-06-10 18:18:55.407057,164,230.4,-0.0043,-0.0231,1.1687
2025-06-10 18:18:55.507057,164,361.4,-0.0041,-0.0212,1.1672
2025-06-10 18:18:55.607057,164,623.6,-0.0014,-0.0241,1.1689
2025-06-10 18:18:55.750988,167,492.5,0.0004,-0.0158,1.1679
2025-06-10 18:18:55.850988,167,623.6,-0.009,-0.0161,1.1628
2025-06-10 18:18:55.950988,167,361.4,-0.0034,-0.0151,1.1713
2025-06-10 18:18:56.406670,174,230.4,-0.0046,-0.027,1.1643
2025-06-10 18:18:56.506670,174,361.4,-0.008,-0.0212,1.1687
2025-06-10 18:18:56.606670,174,492.5,-0.0095,-0.0224,1.1635
2025-06-10 18:18:57.106312,180,492.5,-0.0109,-0.0231,1.164
2025-06-10 18:18:57.206312,180,492.5,-0.0063,-0.0234,1.1755
2025-06-10 18:18:57.306312,180,492.5,-0.0036,-0.0205,1.1638
2025-06-10 18:18:57.107259,181,492.5,-0.0063,-0.0234,1.1755
2025-06-10 18:18:57.207259,181,492.5,-0.0036,-0.0205,1.1638
2025-06-10 18:18:57.307259,181,492.5,-0.0056,-0.0258,1.1645
2025-06-10 18:18:57.355750,183,492.5,-0.0056,-0.0258,1.1645
2025-06-10 18:18:57.455750,183,623.6,-0.0024,-0.0222,1.1687
2025-06-10 18:18:57.555750,183,361.4,-0.0041,-0.0227,1.1694
2025-06-10 18:18:58.397988,193,99.3,-0.0002,-0.0202,1.1672
2025-06-10 18:18:58.497988,193,99.3,-0.0068,-0.0185,1.1645
2025-06-10 18:18:58.597988,193,492.5,-0.0063,-0.0192,1.1684
2025-06-10 18:18:58.695720,196,361.4,-0.0041,-0.0234,1.1684
2025-06-10 18:18:58.795720,196,492.5,-0.0034,-0.0207,1.1718
2025-06-10 18:18:58.895720,196,754.6,-0.0056,-0.0187,1.1772
2025-06-10 18:18:59.046575,200,99.3,-0.0034,-0.0263,1.1667
2025-06-10 18:18:59.146575,200,230.4,-0.0053,-0.0219,1.166
2025-06-10 18:18:59.246575,200,99.3,-0.0024,-0.0234,1.1701
2025-06-10 18:18:59.906869,206,623.6,-0.0068,-0.017,1.1567
2025-06-10 18:19:00.006869,206,492.5,-0.0029,-0.0175,1.1677
2025-06-10 18:19:00.106869,206,230.4,-0.0019,-0.0185,1.166
2025-06-10 18:18:59.933811,209,492.5,-0.0085,-0.0239,1.1691
2025-06-10 18:19:00.033811,209,492.5,-0.0051,-0.0273,1.1716
2025-06-10 18:19:00.133811,209,361.4,-0.007,-0.0285,1.1699
2025-06-10 18:19:00.798850,217,623.6,-0.0063,-0.0224,1.1652
2025-06-10 18:19:00.898850,217,492.5,-0.0041,-0.0263,1.1667
2025-06-10 18:19:00.998850,217,623.6,-0.0021,-0.0217,1.1611
2025-06-10 18:19:00.867339,218,492.5,-0.0041,-0.0263,1.1667
2025-06-10 18:19:00.967339,218,623.6,-0.0021,-0.0217,1.1611
2025-06-10 18:19:01.067339,218,492.5,-0.0009,-0.0205,1.1696
2025-06-10 18:19:04.123525,251,492.5,-0.0046,-0.0229,1.1696
2025-06-10 18:19:04.223525,251,492.5,-0.0039,-0.0261,1.1645
2025-06-10 18:19:04.323525,251,754.6,-0.0041,-0.0236,1.1694
2025-06-10 18:19:04.407937,254,623.6,-0.0058,-0.0239,1.1604
2025-06-10 18:19:04.507937,254,492.5,-0.0041,-0.0278,1.1696
2025-06-10 18:19:04.607937,254,754.6,-0.0048,-0.0222,1.1679
2025-06-10 18:19:04.708839,1,623.6,-0.0087,-0.0202,1.1682
2025-06-10 18:19:04.808839,1,754.6,-0.0053,-0.0219,1.1687
2025-06-10 18:19:04.908839,1,1016.8,-0.0024,-0.0227,1.1633
2025-06-10 18:19:05.016912,4,623.6,-0.0024,-0.0212,1.1669
2025-06-10 18:19:05.116912,4,99.3,-0.0092,-0.0258,1.166
2025-06-10 18:19:05.216912,4,492.5,-0.0119,-0.0231,1.1645
2025-06-10 18:19:05.407591,8,885.7,-0.0065,-0.0227,1.166
2025-06-10 18:19:05.507591,8,885.7,-0.0043,-0.0256,1.1713
2025-06-10 18:19:05.607591,8,623.6,-0.0043,-0.0197,1.1667
2025-06-10 18:19:05.647135,10,623.6,-0.0043,-0.0197,1.1667
2025-06-10 18:19:05.747135,10,623.6,-0.0043,-0.0234,1.1684
2025-06-10 18:19:05.847135,10,754.6,-0.0078,-0.0214,1.1708
2025-06-10 18:19:07.406777,28,885.7,-0.0061,-0.0222,1.1665
2025-06-10 18:19:07.506777,28,754.6,-0.007,-0.0239,1.1633
2025-06-10 18:19:07.606777,28,754.6,0.0012,-0.019,1.1687
2025-06-10 18:19:07.907066,33,754.6,-0.0058,-0.0195,1.1713
2025-06-10 18:19:08.007066,33,885.7,-0.007,-0.0234,1.1669
2025-06-10 18:19:08.107066,33,1016.8,-0.0034,-0.0234,1.1662
2025-06-10 18:19:08.054100,34,885.7,-0.007,-0.0234,1.1669
2025-06-10 18:19:08.154100,34,1016.8,-0.0034,-0.0234,1.1662
2025-06-10 18:19:08.254100,34,754.6,-0.0041,-0.0209,1.1652
2025-06-10 18:19:08.366398,37,885.7,-0.0034,-0.0246,1.1694
2025-06-10 18:19:08.466398,37,754.6,-0.0043,-0.0236,1.1699
2025-06-10 18:19:08.566398,37,361.4,-0.0065,-0.0212,1.1672
2025-06-10 18:19:08.607266,40,623.6,-0.0087,-0.0227,1.1674
2025-06-10 18:19:08.707266,40,623.6,-0.008,-0.0202,1.1638
2025-06-10 18:19:08.807266,40,99.3,-0.0039,-0.0195,1.1699
2025-06-10 18:19:08.907380,43,-31.8,-0.0065,-0.0222,1.1708
2025-06-10 18:19:09.007380,43,99.3,-0.0075,-0.0205,1.1662
2025-06-10 18:19:09.107380,43,230.4,-0.0095,-0.0251,1.1699
2025-06-10 18:19:09.516581,49,-31.8,-0.009,-0.0212,1.1738
2025-06-10 18:19:09.616581,49,99.3,-0.0017,-0.0258,1.166
2025-06-10 18:19:09.716581,49,754.6,-0.0087,-0.0249,1.1701
2025-06-10 18:19:09.807467,52,623.6,-0.0068,-0.0241,1.1718
2025-06-10 18:19:09.907467,52,99.3,-0.0031,-0.0261,1.1735
2025-06-10 18:19:10.007467,52,492.5,-0.0014,-0.0241,1.1689
2025-06-10 18:19:10.109062,55,623.6,-0.0034,-0.0219,1.1713
2025-06-10 18:19:10.209062,55,492.5,-0.0009,-0.0214,1.1594
2025-06-10 18:19:10.309062,55,754.6,-0.0036,-0.0251,1.1752
2025-06-10 18:19:10.404389,56,492.5,-0.0009,-0.0214,1.1594
2025-06-10 18:19:10.504389,56,754.6,-0.0036,-0.0251,1.1752
2025-06-10 18:19:10.604389,56,623.6,-0.0063,-0.0224,1.166
2025-06-10 18:19:10.448268,58,623.6,-0.0063,-0.0224,1.166
2025-06-10 18:19:10.548268,58,623.6,-0.0073,-0.0205,1.1735
2025-06-10 18:19:10.648268,58,754.6,-0.0031,-0.0227,1.1691
2025-06-10 18:19:10.753612,61,623.6,-0.0078,-0.0224,1.1787
2025-06-10 18:19:10.853612,61,492.5,-0.0056,-0.0222,1.1672
2025-06-10 18:19:10.953612,61,754.6,-0.0058,-0.0234,1.1667
2025-06-10 18:19:11.008831,64,885.7,-0.0019,-0.0229,1.1689
2025-06-10 18:19:11.108831,64,623.6,-0.0034,-0.0241,1.1767
2025-06-10 18:19:11.208831,64,1016.8,-0.0026,-0.0241,1.1643
2025-06-10 18:19:11.909349,73,99.3,-0.1835,-0.0383,1.1623
2025-06-10 18:19:12.009349,73,-162.9,-0.0566,0.0407,1.1638
2025-06-10 18:19:12.109349,73,-31.8,0.0239,-0.0207,1.1618
2025-06-10 18:19:12.253709,76,-31.8,0.0688,-0.0988,1.1896
2025-06-10 18:19:12.353709,76,-425.0,-0.1477,0.0341,1.1574
2025-06-10 18:19:12.453709,76,-556.1,-0.0112,-0.052,1.1748
2025-06-10 18:19:12.809672,82,-425.0,-0.0156,-0.0229,1.1667
2025-06-10 18:19:12.909672,82,-425.0,-0.0354,-0.007,1.1728
2025-06-10 18:19:13.009672,82,-293.9,-0.0029,-0.02,1.1665
2025-06-10 18:19:13.129023,85,230.4,0.0466,-0.019,1.1728
2025-06-10 18:19:13.229023,85,361.4,-0.0053,-0.0234,1.1728
2025-06-10 18:19:13.329023,85,-162.9,-0.0153,-0.0209,1.1679
2025-06-10 18:19:13.722211,91,-293.9,-0.0029,-0.0217,1.1711
2025-06-10 18:19:13.822211,91,-162.9,-0.0065,-0.0175,1.1655
2025-06-10 18:19:13.922211,91,99.3,0.0007,-0.027,1.1677
2025-06-10 18:19:14.054896,94,-162.9,-0.0034,-0.0231,1.1672
2025-06-10 18:19:14.154896,94,-293.9,0.0051,-0.0253,1.1613
2025-06-10 18:19:14.254896,94,-31.8,0.0056,-0.0295,1.1733
2025-06-10 18:19:14.309287,97,-31.8,0.0048,-0.0234,1.1687
2025-06-10 18:19:14.409287,97,-162.9,0.0041,-0.0263,1.1721
2025-06-10 18:19:14.509287,97,-31.8,-0.0002,-0.0205,1.1662
2025-06-10 18:19:14.608702,100,-31.8,0.0024,-0.0209,1.1726
2025-06-10 18:19:14.708702,100,-31.8,0.0134,-0.0202,1.1745
2025-06-10 18:19:14.808702,100,99.3,0.0156,-0.0246,1.1857
2025-06-10 18:19:15.804705,109,754.6,0.0327,-0.0212,1.1652
2025-06-10 18:19:15.904705,109,492.5,0.0378,-0.0214,1.1604
2025-06-10 18:19:16.004705,109,99.3,0.0478,-0.0231,1.1564
2025-06-10 18:19:16.724771,121,-31.8,0.0593,-0.0222,1.1647
2025-06-10 18:19:16.824771,121,-293.9,0.06,-0.0229,1.1613
2025-06-10 18:19:16.924771,121,-293.9,0.0573,-0.0229,1.1596
2025-06-10 18:19:16.999377,123,-293.9,0.0573,-0.0229,1.1596
2025-06-10 18:19:17.099377,123,-162.9,0.0563,-0.019,1.1708
2025-06-10 18:19:17.199377,123,361.4,0.0615,-0.0229,1.1657
2025-06-10 18:19:17.355195,127,99.3,0.0659,-0.0192,1.1677
2025-06-10 18:19:17.455195,127,99.3,0.0683,-0.0241,1.163
2025-06-10 18:19:17.555195,127,361.4,0.0612,-0.02,1.1762
2025-06-10 18:19:17.653938,130,230.4,0.0678,-0.0217,1.1669
2025-06-10 18:19:17.753938,130,99.3,0.072,-0.0209,1.163
2025-06-10 18:19:17.853938,130,-162.9,0.0532,-0.0219,1.1774
2025-06-10 18:19:18.087813,133,-31.8,0.0583,-0.0212,1.1687
2025-06-10 18:19:18.187813,133,-31.8,0.0664,-0.0246,1.1726
2025-06-10 18:19:18.287813,133,230.4,0.0727,-0.0227,1.1713
2025-06-10 18:19:18.088798,134,-31.8,0.0664,-0.0246,1.1726
2025-06-10 18:19:18.188798,134,230.4,0.0727,-0.0227,1.1713
2025-06-10 18:19:18.288798,134,623.6,0.0637,-0.0187,1.1672
2025-06-10 18:19:19.107725,145,-31.8,0.071,-0.0244,1.1684
2025-06-10 18:19:19.207725,145,99.3,0.0727,-0.0207,1.1745
2025-06-10 18:19:19.307725,145,99.3,0.0737,-0.0219,1.1645
2025-06-10 18:19:19.729253,151,-687.2,0.0703,-0.0231,1.1687
2025-06-10 18:19:19.829253,151,-425.0,0.0703,-0.0173,1.165
2025-06-10 18:19:19.929253,151,-162.9,0.0703,-0.0236,1.1694
2025-06-10 18:19:20.648463,160,-425.0,0.0703,-0.0202,1.166
2025-06-10 18:19:20.748463,160,-687.2,0.0734,-0.0212,1.1618
2025-06-10 18:19:20.848463,160,-293.9,0.0688,-0.0227,1.1623
2025-06-10 18:19:21.263331,166,-425.0,0.0727,-0.0187,1.163
2025-06-10 18:19:21.363331,166,-556.1,0.0725,-0.0258,1.1601
2025-06-10 18:19:21.463331,166,-556.1,0.0664,-0.0207,1.1687
2025-06-10 18:19:22.097863,174,-293.9,0.0629,-0.0183,1.1735
2025-06-10 18:19:22.197863,174,-293.9,0.069,-0.0205,1.1674
2025-06-10 18:19:22.297863,174,-31.8,0.0781,-0.0251,1.1638
2025-06-10 18:19:22.193259,175,-293.9,0.069,-0.0205,1.1674
2025-06-10 18:19:22.293259,175,-31.8,0.0781,-0.0251,1.1638
2025-06-10 18:19:22.393259,175,-31.8,0.0756,-0.0241,1.1682
2025-06-10 18:19:23.009395,184,-425.0,0.0781,-0.0207,1.1621
2025-06-10 18:19:23.109395,184,-31.8,0.0788,-0.0227,1.1552
2025-06-10 18:19:23.209395,184,99.3,0.0646,-0.0175,1.1787
2025-06-10 18:19:23.632300,190,99.3,0.0747,-0.0212,1.1638
2025-06-10 18:19:23.732300,190,-162.9,0.0856,-0.0246,1.153
2025-06-10 18:19:23.832300,190,-293.9,0.0788,-0.0222,1.1611
2025-06-10 18:19:23.908690,193,-425.0,0.0712,-0.0236,1.1694
2025-06-10 18:19:24.008690,193,-31.8,0.0659,-0.0258,1.1745
2025-06-10 18:19:24.108690,193,-31.8,0.0778,-0.0227,1.1582
2025-06-10 18:19:24.246366,196,99.3,0.0817,-0.02,1.1569
2025-06-10 18:19:24.346366,196,361.4,0.0742,-0.0202,1.177
2025-06-10 18:19:24.446366,196,-31.8,0.0742,-0.0205,1.1784
2025-06-10 18:19:24.508537,199,-162.9,0.083,-0.018,1.1625
2025-06-10 18:19:24.608537,199,-31.8,0.0859,-0.0222,1.1594
2025-06-10 18:19:24.708537,199,-162.9,0.0729,-0.0246,1.176
2025-06-10 18:19:24.809805,202,99.3,0.0878,-0.0219,1.1726
2025-06-10 18:19:24.909805,202,230.4,0.08,-0.0185,1.1662
2025-06-10 18:19:25.009805,202,-31.8,0.0827,-0.0173,1.165
2025-06-10 18:19:25.407086,208,361.4,0.0881,-0.019,1.1623
2025-06-10 18:19:25.507086,208,492.5,0.0805,-0.019,1.1674
2025-06-10 18:19:25.607086,208,492.5,0.0847,-0.0207,1.173
2025-06-10 18:19:26.006492,214,492.5,0.0842,-0.0244,1.177
2025-06-10 18:19:26.106492,214,492.5,0.0566,-0.0187,1.185
2025-06-10 18:19:26.206492,214,361.4,0.0717,-0.0197,1.1845
2025-06-10 18:19:26.307548,217,361.4,0.0754,-0.0207,1.1696
2025-06-10 18:19:26.407548,217,230.4,0.0869,-0.0217,1.1552
2025-06-10 18:19:26.507548,217,230.4,0.0895,-0.0209,1.1611
2025-06-10 18:19:26.608463,220,230.4,0.0505,-0.007,1.1835
2025-06-10 18:19:26.708463,220,-31.8,0.081,-0.0205,1.164
2025-06-10 18:19:26.808463,220,-31.8,0.0869,-0.0148,1.174
2025-06-10 18:19:26.706467,221,-31.8,0.081,-0.0205,1.164
2025-06-10 18:19:26.806467,221,-31.8,0.0869,-0.0148,1.174
2025-06-10 18:19:26.906467,221,230.4,0.0695,-0.0124,1.1914
2025-06-10 18:19:27.208709,226,-425.0,0.0859,-0.018,1.1701
2025-06-10 18:19:27.308709,226,-293.9,0.0769,-0.018,1.1643
2025-06-10 18:19:27.408709,226,-31.8,0.0744,-0.0163,1.1726
2025-06-10 18:19:27.506112,229,-556.1,0.0739,-0.0168,1.174
2025-06-10 18:19:27.606112,229,-556.1,0.0825,-0.0197,1.1694
2025-06-10 18:19:27.706112,229,-425.0,0.0825,-0.0183,1.1665
2025-06-10 18:19:27.847109,232,-556.1,0.0783,-0.0222,1.1723
2025-06-10 18:19:27.947109,232,-31.8,0.0881,-0.0197,1.1625
2025-06-10 18:19:28.047109,232,230.4,0.0795,-0.0209,1.164
2025-06-10 18:19:28.109168,235,230.4,0.0783,-0.0266,1.1682
2025-06-10 18:19:28.209168,235,-162.9,0.0747,-0.0178,1.1701
2025-06-10 18:19:28.309168,235,-556.1,0.0734,-0.0224,1.1682
2025-06-10 18:19:28.851749,242,-162.9,0.0664,-0.0217,1.155
2025-06-10 18:19:28.951749,242,-31.8,0.0043,-0.0234,1.1765
2025-06-10 18:19:29.051749,242,99.3,-0.0009,-0.0161,1.166
2025-06-10 18:19:29.008740,243,-31.8,0.0043,-0.0234,1.1765
2025-06-10 18:19:29.108740,243,99.3,-0.0009,-0.0161,1.166
2025-06-10 18:19:29.208740,243,99.3,0.0056,-0.0324,1.1701
2025-06-10 18:19:29.009652,244,99.3,-0.0009,-0.0161,1.166
2025-06-10 18:19:29.109652,244,99.3,0.0056,-0.0324,1.1701
2025-06-10 18:19:29.209652,244,230.4,-0.0004,-0.0197,1.1682
2025-06-10 18:19:30.507752,3,99.3,-0.0031,-0.0256,1.1677
2025-06-10 18:19:30.607752,3,230.4,-0.0024,-0.0202,1.1694
2025-06-10 18:19:30.707752,3,230.4,-0.0056,-0.0285,1.1638
2025-06-10 18:19:30.853149,6,361.4,-0.0068,-0.0217,1.1691
2025-06-10 18:19:30.953149,6,361.4,-0.0036,-0.0178,1.1677
2025-06-10 18:19:31.053149,6,99.3,-0.0065,-0.0251,1.1689
2025-06-10 18:19:31.106792,9,230.4,-0.0007,-0.0244,1.1735
2025-06-10 18:19:31.206792,9,230.4,-0.0009,-0.0222,1.1699
2025-06-10 18:19:31.306792,9,99.3,-0.0004,-0.0205,1.174
2025-06-10 18:19:31.408277,12,230.4,-0.0021,-0.0227,1.1699
2025-06-10 18:19:31.508277,12,230.4,-0.0051,-0.0231,1.1684
2025-06-10 18:19:31.608277,12,361.4,-0.0041,-0.0249,1.1657
2025-06-10 18:19:32.311829,21,99.3,-0.0039,-0.0207,1.1687
2025-06-10 18:19:32.411829,21,99.3,-0.0053,-0.0195,1.1723
2025-06-10 18:19:32.507829,21,99.3,-0.0041,-0.0251,1.1596
2025-06-10 18:19:32.625201,24,-31.8,-0.0026,-0.0227,1.165
2025-06-10 18:19:32.725201,24,99.3,-0.0043,-0.0222,1.1716
2025-06-10 18:19:32.825201,24,230.4,-0.0034,-0.0197,1.1718
2025-06-10 18:19:33.509409,33,361.4,-0.0056,-0.0256,1.1621
2025-06-10 18:19:33.609409,33,361.4,-0.0021,-0.0212,1.1691
2025-06-10 18:19:33.709409,33,230.4,-0.0012,-0.0246,1.176
2025-06-10 18:19:33.819373,36,-31.8,-0.0058,-0.0227,1.1684
2025-06-10 18:19:33.919373,36,-425.0,-0.0056,-0.0192,1.1621
2025-06-10 18:19:34.019373,36,-687.2,-0.0046,-0.0244,1.1677
2025-06-10 18:19:34.151821,39,-1080.4,-0.0034,-0.0231,1.1735
2025-06-10 18:19:34.251821,39,-1473.6,-0.0019,-0.0253,1.1679
2025-06-10 18:19:34.351821,39,-1997.9,-0.0092,-0.0231,1.1728
2025-06-10 18:19:34.455885,42,-1735.7,-0.007,-0.0222,1.1733
2025-06-10 18:19:34.555885,42,-1211.4,-0.0036,-0.0258,1.1667
2025-06-10 18:19:34.655885,42,-1604.7,-0.0009,-0.0197,1.1589
2025-06-10 18:19:35.052496,48,-1080.4,-0.0034,-0.0229,1.1638
2025-06-10 18:19:35.152496,48,-1080.4,-0.0009,-0.0263,1.1669
2025-06-10 18:19:35.252496,48,-1080.4,-0.0068,-0.0236,1.173
2025-06-10 18:19:36.525408,63,-1080.4,0.028,-0.0195,1.1728
2025-06-10 18:19:36.625408,63,-949.3,-0.048,-0.0317,1.1606
2025-06-10 18:19:36.725408,63,-1080.4,-0.0888,-0.0554,1.1696
2025-06-10 18:19:36.698605,64,-949.3,-0.048,-0.0317,1.1606
2025-06-10 18:19:36.798605,64,-1080.4,-0.0888,-0.0554,1.1696
2025-06-10 18:19:36.898605,64,-949.3,-0.041,0.0117,1.1816
2025-06-10 18:19:36.828601,66,-949.3,-0.041,0.0117,1.1816
2025-06-10 18:19:36.928601,66,-818.2,-0.0639,-0.0512,1.1589
2025-06-10 18:19:37.028601,66,-818.2,0.0004,-0.018,1.1687
2025-06-10 18:19:37.143861,69,-1211.4,-0.0056,-0.0285,1.1657
2025-06-10 18:19:37.243861,69,-1211.4,0.0058,-0.0231,1.1708
2025-06-10 18:19:37.343861,69,-1080.4,0.0258,-0.007,1.1691
2025-06-10 18:19:38.649975,84,-1735.7,-0.0007,-0.0317,1.1608
2025-06-10 18:19:38.749975,84,-1735.7,0.0151,-0.0354,1.1652
2025-06-10 18:19:38.849975,84,-1735.7,-0.0314,-0.0239,1.1689
2025-06-10 18:19:39.246574,90,-1866.8,-0.0646,-0.0568,1.1979
2025-06-10 18:19:39.346574,90,-1735.7,-0.0085,-0.0366,1.1264
2025-06-10 18:19:39.446574,90,-1342.5,-0.0046,-0.0134,1.1674
2025-06-10 18:19:39.517822,93,-1080.4,-0.01,-0.0251,1.1625
2025-06-10 18:19:39.617822,93,-1342.5,-0.0092,-0.0244,1.163
2025-06-10 18:19:39.717822,93,-1342.5,-0.0161,-0.0192,1.1657
2025-06-10 18:19:40.107677,99,-1473.6,-0.0061,-0.0195,1.1691
2025-06-10 18:19:40.207677,99,-1342.5,-0.0058,-0.0202,1.1621
2025-06-10 18:19:40.307677,99,-1604.7,-0.0078,-0.0249,1.1682
2025-06-10 18:19:40.393286,101,-1604.7,-0.0078,-0.0249,1.1682
2025-06-10 18:19:40.493286,101,-1604.7,-0.0061,-0.0207,1.1682
2025-06-10 18:19:40.593286,101,-1604.7,-0.0061,-0.0239,1.1657
2025-06-10 18:19:40.447400,102,-1604.7,-0.0061,-0.0207,1.1682
2025-06-10 18:19:40.547400,102,-1604.7,-0.0061,-0.0239,1.1657
2025-06-10 18:19:40.647400,102,-1604.7,-0.0029,-0.0263,1.1682
2025-06-10 18:19:40.753746,105,-1604.7,-0.0036,-0.0224,1.174
2025-06-10 18:19:40.853746,105,-1604.7,-0.0041,-0.0227,1.1633
2025-06-10 18:19:40.953746,105,-1866.8,-0.0073,-0.0224,1.1684
2025-06-10 18:19:41.008017,108,-1473.6,-0.0097,-0.0266,1.1672
2025-06-10 18:19:41.108017,108,-1080.4,-0.0046,-0.0231,1.1667
2025-06-10 18:19:41.208017,108,-1342.5,-0.0107,-0.0224,1.1721
2025-06-10 18:19:41.309176,111,-1473.6,-0.0068,-0.0263,1.1682
2025-06-10 18:19:41.409176,111,-1604.7,-0.0102,-0.0258,1.166
2025-06-10 18:19:41.509176,111,-1473.6,-0.007,-0.0231,1.1669
2025-06-10 18:19:41.595853,113,-1473.6,-0.007,-0.0231,1.1669
2025-06-10 18:19:41.695853,113,-1604.7,-0.007,-0.028,1.1367
2025-06-10 18:19:41.795853,113,-1342.5,-0.0058,-0.0249,1.1706
2025-06-10 18:19:41.896403,116,-1211.4,-0.0024,-0.0236,1.1691
2025-06-10 18:19:41.996403,116,-1473.6,-0.0041,-0.0256,1.1662
2025-06-10 18:19:42.096403,116,-1342.5,-0.008,-0.0141,1.1625
2025-06-10 18:19:41.916284,117,-1473.6,-0.0041,-0.0256,1.1662
2025-06-10 18:19:42.016284,117,-1342.5,-0.008,-0.0141,1.1625
2025-06-10 18:19:42.116284,117,-1080.4,-0.0063,-0.0124,1.1662
2025-06-10 18:19:43.106648,126,-1604.7,-0.0068,-0.0227,1.1691
2025-06-10 18:19:43.206648,126,-1997.9,0.0019,-0.0217,1.1679
2025-06-10 18:19:43.306648,126,-1866.8,0.0004,-0.0214,1.1696
2025-06-10 18:19:43.108771,129,-1735.7,0.0051,-0.0263,1.1684
2025-06-10 18:19:43.208771,129,-1473.6,0.0043,-0.0253,1.1669
2025-06-10 18:19:43.308771,129,-1342.5,-0.0026,-0.0261,1.1687
2025-06-10 18:19:43.447010,132,-1211.4,-0.0063,-0.0234,1.1696
2025-06-10 18:19:43.547010,132,-1342.5,-0.0048,-0.0258,1.1691
2025-06-10 18:19:43.647010,132,-1735.7,-0.0034,-0.0258,1.1674
2025-06-10 18:19:44.346508,141,-1342.5,-0.0073,-0.0222,1.1633
2025-06-10 18:19:44.446508,141,-1080.4,-0.0058,-0.0227,1.1711
2025-06-10 18:19:44.546508,141,-949.3,-0.0026,-0.0212,1.1691
2025-06-10 18:19:44.907431,146,-1735.7,0.0002,-0.0251,1.1677
2025-06-10 18:19:45.007431,146,-1473.6,-0.0029,-0.0249,1.1679
2025-06-10 18:19:45.107431,146,-1342.5,0.0,-0.0207,1.1625
2025-06-10 18:19:44.929297,147,-1473.6,-0.0029,-0.0249,1.1679
2025-06-10 18:19:45.029297,147,-1342.5,0.0,-0.0207,1.1625
2025-06-10 18:19:45.129297,147,-1473.6,-0.0024,-0.0246,1.1667
2025-06-10 18:19:45.206722,150,-1735.7,-0.0068,-0.0224,1.1721
2025-06-10 18:19:45.306722,150,-1604.7,-0.0019,-0.0212,1.166
2025-06-10 18:19:45.406722,150,-1473.6,-0.0075,-0.0231,1.1665
2025-06-10 18:19:45.899768,156,-1604.7,-0.0078,-0.0253,1.1674
2025-06-10 18:19:45.999768,156,-1735.7,-0.0046,-0.0227,1.1677
2025-06-10 18:19:46.099768,156,-1604.7,-0.0065,-0.0217,1.1679
2025-06-10 18:19:46.105581,159,-1604.7,-0.0014,-0.018,1.1557
2025-06-10 18:19:46.205581,159,-1604.7,-0.0036,-0.017,1.163
2025-06-10 18:19:46.305581,159,-1342.5,-0.0097,-0.0251,1.1689
2025-06-10 18:19:46.419511,162,-1473.6,-0.0036,-0.0251,1.1752
2025-06-10 18:19:46.519511,162,-1604.7,-0.0017,-0.0236,1.165
2025-06-10 18:19:46.619511,162,-1866.8,-0.0034,-0.0244,1.1662
2025-06-10 18:19:46.681536,164,-1866.8,-0.0034,-0.0244,1.1662
2025-06-10 18:19:46.781536,164,-1735.7,-0.0029,-0.0183,1.1667
2025-06-10 18:19:46.881536,164,-1735.7,-0.0041,-0.0234,1.1608
2025-06-10 18:19:47.049596,168,-1735.7,-0.0014,-0.0227,1.1716
2025-06-10 18:19:47.149596,168,-1866.8,-0.0041,-0.0222,1.1726
2025-06-10 18:19:47.249596,168,-1735.7,-0.0012,-0.0219,1.1706
2025-06-10 18:19:47.648468,174,-2128.9,-0.0097,-0.0212,1.1728
2025-06-10 18:19:47.748468,174,-1997.9,-0.0026,-0.0205,1.1691
2025-06-10 18:19:47.848468,174,-1735.7,-0.0087,-0.0207,1.1726
2025-06-10 18:19:47.908460,177,-1604.7,-0.0051,-0.0195,1.1672
2025-06-10 18:19:48.008460,177,-1997.9,-0.0083,-0.0295,1.1691
2025-06-10 18:19:48.108460,177,-1997.9,-0.007,-0.0256,1.1647
2025-06-10 18:19:48.206373,180,-1997.9,-0.0058,-0.0224,1.1713
2025-06-10 18:19:48.306373,180,-1866.8,-0.0061,-0.019,1.1706
2025-06-10 18:19:48.406373,180,-1735.7,-0.009,-0.0163,1.1711
2025-06-10 18:19:48.507331,183,-1997.9,-0.0065,-0.0148,1.1691
2025-06-10 18:19:48.607331,183,-1997.9,-0.0061,-0.0158,1.1682
2025-06-10 18:19:48.707331,183,-1604.7,-0.0004,-0.0227,1.1701
2025-06-10 18:19:48.809670,186,-1473.6,-0.0002,-0.0227,1.1665
2025-06-10 18:19:48.909670,186,-1604.7,-0.0126,-0.03,1.1657
2025-06-10 18:19:49.009670,186,-1342.5,-0.0063,-0.0207,1.1682
2025-06-10 18:19:49.508228,193,-1211.4,-0.0058,-0.0207,1.1638
2025-06-10 18:19:49.608228,193,-1211.4,-0.007,-0.0173,1.1708
2025-06-10 18:19:49.708228,193,-1342.5,-0.0029,-0.0239,1.1662
2025-06-10 18:19:50.655051,204,-1211.4,-0.0085,-0.0297,1.1745
2025-06-10 18:19:50.755051,204,-1604.7,-0.0102,-0.0266,1.1679
2025-06-10 18:19:50.855051,204,-1604.7,-0.0051,-0.0312,1.1713
2025-06-10 18:19:50.915431,207,-1604.7,-0.0112,-0.0261,1.1662
2025-06-10 18:19:51.015431,207,-1604.7,-0.007,-0.0209,1.1677
2025-06-10 18:19:51.115431,207,-1342.5,-0.0061,-0.0344,1.1562
2025-06-10 18:19:52.148363,219,-949.3,-0.0019,-0.0275,1.1699
2025-06-10 18:19:52.248363,219,-1080.4,-0.0002,-0.0192,1.1708
2025-06-10 18:19:52.348363,219,-1080.4,-0.0073,-0.0187,1.1684
2025-06-10 18:19:52.292049,220,-1080.4,-0.0002,-0.0192,1.1708
2025-06-10 18:19:52.392049,220,-1080.4,-0.0073,-0.0187,1.1684
2025-06-10 18:19:52.492049,220,-949.3,-0.009,-0.0236,1.1713
2025-06-10 18:19:53.649746,234,-1342.5,-0.0034,-0.0246,1.1679
2025-06-10 18:19:53.749746,234,-1080.4,-0.0036,-0.0217,1.1643
2025-06-10 18:19:53.849746,234,-1473.6,-0.0021,-0.0229,1.1706
2025-06-10 18:19:54.249338,240,-1080.4,-0.0048,-0.0263,1.1677
2025-06-10 18:19:54.349338,240,-949.3,-0.0092,-0.0234,1.1608
2025-06-10 18:19:54.449338,240,-1211.4,-0.0034,-0.0273,1.165
2025-06-10 18:19:55.116518,246,-1473.6,-0.0021,-0.0236,1.1657
2025-06-10 18:19:55.216518,246,-1211.4,-0.0043,-0.0227,1.1667
2025-06-10 18:19:55.316518,246,-1211.4,-0.0058,-0.0249,1.1694
2025-06-10 18:19:55.154306,249,-1604.7,-0.0073,-0.0209,1.163
2025-06-10 18:19:55.254306,249,-1866.8,-0.0073,-0.0209,1.1679
2025-06-10 18:19:55.354306,249,-1866.8,-0.0039,-0.0236,1.1662
2025-06-10 18:19:55.543944,253,-1473.6,-0.0051,-0.0236,1.1726
2025-06-10 18:19:55.643944,253,-1211.4,-0.0061,-0.0256,1.1679
2025-06-10 18:19:55.743944,253,-1080.4,-0.0041,-0.0275,1.1667
2025-06-10 18:19:56.050054,2,-1473.6,-0.0039,-0.0314,1.1706
2025-06-10 18:19:56.150054,2,-1473.6,-0.0017,-0.0368,1.1735
2025-06-10 18:19:56.250054,2,-1473.6,-0.0112,-0.02,1.1679
2025-06-10 18:19:57.104959,12,-1211.4,0.0019,-0.0295,1.1723
2025-06-10 18:19:57.204959,12,-1080.4,-0.0024,-0.0288,1.1718
2025-06-10 18:19:57.304959,12,-949.3,-0.0021,-0.0263,1.1713
2025-06-10 18:19:57.105833,13,-1080.4,-0.0024,-0.0288,1.1718
2025-06-10 18:19:57.205833,13,-949.3,-0.0021,-0.0263,1.1713
2025-06-10 18:19:57.305833,13,-1342.5,-0.0021,-0.0268,1.1682
2025-06-10 18:19:58.188945,23,-1473.6,-0.0046,-0.028,1.1669
2025-06-10 18:19:58.288945,23,-1473.6,-0.009,-0.0292,1.1545
2025-06-10 18:19:58.388945,23,-1211.4,-0.0048,-0.02,1.1684
2025-06-10 18:19:58.207021,24,-1473.6,-0.009,-0.0292,1.1545
2025-06-10 18:19:58.307021,24,-1211.4,-0.0048,-0.02,1.1684
2025-06-10 18:19:58.407021,24,-818.2,-0.0051,-0.031,1.1689
2025-06-10 18:19:58.751277,29,-1604.7,-0.0063,-0.0222,1.1696
2025-06-10 18:19:58.851277,29,-1604.7,-0.0068,-0.018,1.1721
2025-06-10 18:19:58.951277,29,-1735.7,-0.0078,-0.0205,1.1696
2025-06-10 18:19:59.429733,35,-1604.7,-0.0073,-0.019,1.1672
2025-06-10 18:19:59.529733,35,-1080.4,-0.0046,-0.0212,1.1677
2025-06-10 18:19:59.629733,35,-949.3,-0.0053,-0.0227,1.1667
2025-06-10 18:19:59.953406,41,-1211.4,-0.0012,-0.0178,1.1684
2025-06-10 18:20:00.053406,41,-1211.4,-0.007,-0.0183,1.1679
2025-06-10 18:20:00.153406,41,-1604.7,-0.0039,-0.0212,1.1689
2025-06-10 18:20:00.546110,47,-1080.4,-0.0046,-0.0258,1.1643
2025-06-10 18:20:00.646110,47,-1080.4,-0.0078,-0.0217,1.1643
2025-06-10 18:20:00.746110,47,-1211.4,-0.0056,-0.0217,1.1674
2025-06-10 18:20:01.196561,53,-1080.4,-0.0046,-0.0244,1.1735
2025-06-10 18:20:01.296561,53,-818.2,-0.0026,-0.0275,1.175
2025-06-10 18:20:01.396561,53,-818.2,-0.0039,-0.0285,1.1647
2025-06-10 18:20:01.750178,59,-818.2,-0.0046,-0.0266,1.1682
2025-06-10 18:20:01.850178,59,-818.2,-0.0039,-0.0239,1.1674
2025-06-10 18:20:01.950178,59,-1080.4,-0.0048,-0.0275,1.1684
2025-06-10 18:20:02.947550,71,-949.3,-0.0085,-0.0212,1.1647
2025-06-10 18:20:03.047550,71,-949.3,-0.0043,-0.0209,1.1655
2025-06-10 18:20:03.147550,71,-1080.4,-0.0048,-0.0251,1.166
2025-06-10 18:20:04.253473,84,-1342.5,-0.0036,-0.0217,1.1706
2025-06-10 18:20:04.353473,84,-1473.6,-0.0029,-0.0241,1.1672
2025-06-10 18:20:04.453473,84,-949.3,-0.0085,-0.0236,1.1689
2025-06-10 18:20:04.448250,86,-949.3,-0.0085,-0.0236,1.1689
2025-06-10 18:20:04.548250,86,-687.2,-0.0029,-0.0227,1.1647
2025-06-10 18:20:04.648250,86,-1080.4,-0.0085,-0.0275,1.1696
2025-06-10 18:20:04.751694,89,-1211.4,-0.0002,-0.0251,1.1684
2025-06-10 18:20:04.851694,89,-949.3,-0.0068,-0.0268,1.173
2025-06-10 18:20:04.951694,89,-818.2,-0.0039,-0.0217,1.1696
2025-06-10 18:20:05.609016,98,-1211.4,-0.0085,-0.0241,1.1743
2025-06-10 18:20:05.709016,98,-1080.4,-0.0012,-0.0241,1.165
2025-06-10 18:20:05.809016,98,-1342.5,-0.0053,-0.0227,1.1711
2025-06-10 18:20:05.906463,101,-1342.5,-0.0075,-0.0246,1.1696
2025-06-10 18:20:06.006463,101,-1342.5,-0.0014,-0.0263,1.1716
2025-06-10 18:20:06.106463,101,-949.3,-0.0026,-0.0214,1.1677
2025-06-10 18:20:06.508382,107,-556.1,-0.0043,-0.0183,1.164
2025-06-10 18:20:06.608382,107,-687.2,-0.0053,-0.019,1.1728
2025-06-10 18:20:06.708382,107,-949.3,-0.0036,-0.0192,1.1711
2025-06-10 18:20:06.697573,108,-687.2,-0.0053,-0.019,1.1728
2025-06-10 18:20:06.797573,108,-949.3,-0.0036,-0.0192,1.1711
2025-06-10 18:20:06.897573,108,-949.3,-0.0026,-0.0212,1.1652
2025-06-10 18:20:07.106111,110,-949.3,-0.0026,-0.0212,1.1652
2025-06-10 18:20:07.206111,110,-818.2,-0.0031,-0.018,1.1674
2025-06-10 18:20:07.306111,110,-949.3,-0.009,-0.0261,1.1833
2025-06-10 18:20:07.404391,113,-949.3,-0.0048,-0.0209,1.1679
2025-06-10 18:20:07.504391,113,-1080.4,-0.0046,-0.0258,1.1633
2025-06-10 18:20:07.604391,113,-818.2,-0.007,-0.0241,1.1645
2025-06-10 18:20:08.644779,128,-1080.4,-0.0021,-0.0197,1.1599
2025-06-10 18:20:08.744779,128,-1211.4,-0.0019,-0.0185,1.1674
2025-06-10 18:20:08.844779,128,-1473.6,-0.0002,-0.0246,1.1682
2025-06-10 18:20:09.205922,134,-818.2,-0.0029,-0.0263,1.1682
2025-06-10 18:20:09.305922,134,-1080.4,-0.0068,-0.0249,1.1701
2025-06-10 18:20:09.405922,134,-1473.6,-0.0053,-0.0214,1.166
2025-06-10 18:20:09.498841,136,-1473.6,-0.0053,-0.0214,1.166
2025-06-10 18:20:09.598841,136,-1473.6,-0.007,-0.0244,1.1682
2025-06-10 18:20:09.698841,136,-1604.7,-0.0056,-0.0244,1.1677
2025-06-10 18:20:09.589951,137,-1473.6,-0.007,-0.0244,1.1682
2025-06-10 18:20:09.689951,137,-1604.7,-0.0056,-0.0244,1.1677
2025-06-10 18:20:09.789951,137,-1211.4,-0.0075,-0.0175,1.1689
2025-06-10 18:20:09.808237,140,-949.3,-0.0078,-0.0212,1.1684
2025-06-10 18:20:09.908237,140,-949.3,-0.0026,-0.0178,1.1674
2025-06-10 18:20:10.008237,140,-1211.4,-0.0036,-0.0236,1.1701
2025-06-10 18:20:10.150372,143,-1080.4,-0.0053,-0.02,1.1708
2025-06-10 18:20:10.250372,143,-293.9,-0.0095,-0.02,1.1657
2025-06-10 18:20:10.350372,143,-687.2,-0.0043,-0.0222,1.1655
2025-06-10 18:20:10.748337,149,-949.3,-0.0012,-0.0202,1.1701
2025-06-10 18:20:10.848337,149,-949.3,-0.0046,-0.019,1.1623
2025-06-10 18:20:10.948337,149,-1211.4,-0.0051,-0.02,1.1687
2025-06-10 18:20:12.096271,162,-949.3,-0.0029,-0.0241,1.1643
2025-06-10 18:20:12.196271,162,-949.3,-0.0031,-0.0297,1.1638
2025-06-10 18:20:12.296271,162,-1080.4,-0.0048,-0.0253,1.1708
2025-06-10 18:20:12.206875,164,-1080.4,-0.0048,-0.0253,1.1708
2025-06-10 18:20:12.306875,164,-949.3,-0.0051,-0.0256,1.1684
2025-06-10 18:20:12.406875,164,-818.2,-0.0024,-0.0214,1.1672
2025-06-10 18:20:12.508493,167,-1080.4,-0.0009,-0.0207,1.1625
2025-06-10 18:20:12.608493,167,-1080.4,-0.0026,-0.0275,1.1638
2025-06-10 18:20:12.708493,167,-949.3,-0.0017,-0.0249,1.1645
2025-06-10 18:20:13.106973,173,-949.3,-0.0053,-0.0229,1.1628
2025-06-10 18:20:13.206973,173,-949.3,-0.0034,-0.0234,1.1738
2025-06-10 18:20:13.306973,173,-949.3,-0.0043,-0.0229,1.1694
2025-06-10 18:20:13.396979,175,-949.3,-0.0043,-0.0229,1.1694
2025-06-10 18:20:13.496979,175,-818.2,-0.0031,-0.0239,1.1662
2025-06-10 18:20:13.596979,175,-556.1,-0.0024,-0.0236,1.1623
2025-06-10 18:20:13.706324,179,-556.1,-0.007,-0.0205,1.1701
2025-06-10 18:20:13.806324,179,-556.1,-0.0068,-0.0222,1.1684
2025-06-10 18:20:13.906324,179,-556.1,-0.0021,-0.0234,1.1665
2025-06-10 18:20:14.006778,182,-818.2,-0.0041,-0.0234,1.1682
2025-06-10 18:20:14.106778,182,-949.3,-0.0078,-0.0222,1.1684
2025-06-10 18:20:14.206778,182,-818.2,-0.0036,-0.027,1.1694
2025-06-10 18:20:14.349935,185,-556.1,-0.0029,-0.0212,1.1718
2025-06-10 18:20:14.449935,185,-949.3,-0.0078,-0.0234,1.1718
2025-06-10 18:20:14.549935,185,-1080.4,-0.0014,-0.0214,1.1591
2025-06-10 18:20:15.209260,194,-1342.5,-0.0012,-0.0314,1.1782
2025-06-10 18:20:15.309260,194,-1080.4,-0.0048,-0.0302,1.1694
2025-06-10 18:20:15.409260,194,-949.3,-0.0036,-0.027,1.1682
2025-06-10 18:20:15.537621,197,-1211.4,-0.0036,-0.0273,1.1674
2025-06-10 18:20:15.637621,197,-1211.4,-0.0043,-0.0239,1.1713
2025-06-10 18:20:15.737621,197,-818.2,-0.009,-0.0139,1.1638
2025-06-10 18:20:15.807285,200,-818.2,-0.0029,-0.0205,1.1662
2025-06-10 18:20:15.907285,200,-949.3,-0.0036,-0.0256,1.1701
2025-06-10 18:20:16.007285,200,-687.2,-0.0043,-0.0209,1.1665
2025-06-10 18:20:16.396296,203,-556.1,-0.0029,-0.03,1.1657
2025-06-10 18:20:16.496296,203,-687.2,-0.0041,-0.0236,1.1726
2025-06-10 18:20:16.596296,203,-1080.4,-0.0029,-0.0222,1.1672
2025-06-10 18:20:16.397131,205,-1080.4,-0.0029,-0.0222,1.1672
2025-06-10 18:20:16.497131,205,-1211.4,-0.0026,-0.0229,1.1682
2025-06-10 18:20:16.597131,205,-949.3,-0.0021,-0.0217,1.1728
2025-06-10 18:20:17.307451,215,-687.2,-0.0041,-0.0219,1.1735
2025-06-10 18:20:17.407451,215,-949.3,-0.0034,-0.0227,1.1711
2025-06-10 18:20:17.507451,215,-949.3,-0.0021,-0.0195,1.1662
2025-06-10 18:20:17.708149,219,-1080.4,-0.0021,-0.028,1.1699
2025-06-10 18:20:17.808149,219,-1211.4,-0.0053,-0.0244,1.1689
2025-06-10 18:20:17.908149,219,-818.2,-0.0053,-0.0234,1.165
2025-06-10 18:20:18.201836,221,-818.2,-0.0053,-0.0234,1.165
2025-06-10 18:20:18.301836,221,-818.2,-0.0053,-0.0222,1.1677
2025-06-10 18:20:18.401836,221,-818.2,-0.0058,-0.0261,1.1679
2025-06-10 18:20:18.549958,227,-687.2,-0.0031,-0.0234,1.1721
2025-06-10 18:20:18.649958,227,-1211.4,-0.0017,-0.0246,1.173
2025-06-10 18:20:18.749958,227,-1080.4,-0.008,-0.0236,1.1728
2025-06-10 18:20:18.824077,230,-818.2,-0.0026,-0.0212,1.165
2025-06-10 18:20:18.924077,230,-818.2,-0.0048,-0.0229,1.1652
2025-06-10 18:20:19.024077,230,-1080.4,-0.0075,-0.0261,1.1704
2025-06-10 18:20:19.408336,236,-425.0,-0.0078,-0.02,1.1711
2025-06-10 18:20:19.508336,236,-425.0,-0.008,-0.0258,1.1743
2025-06-10 18:20:19.608336,236,-818.2,-0.0024,-0.0268,1.1689
2025-06-10 18:20:19.998330,241,-818.2,-0.0048,-0.0278,1.1687
2025-06-10 18:20:20.098330,241,-1080.4,-0.0068,-0.0288,1.165
2025-06-10 18:20:20.198330,241,-949.3,-0.0058,-0.029,1.1679
2025-06-10 18:20:20.007176,242,-1080.4,-0.0068,-0.0288,1.165
2025-06-10 18:20:20.107176,242,-949.3,-0.0058,-0.029,1.1679
2025-06-10 18:20:20.207176,242,-818.2,-0.0029,-0.0305,1.1704
2025-06-10 18:20:20.452172,246,-1342.5,-0.0078,-0.0207,1.165
2025-06-10 18:20:20.552172,246,-1473.6,-0.0075,-0.0214,1.1706
2025-06-10 18:20:20.652172,246,-1211.4,-0.0034,-0.0207,1.1679
2025-06-10 18:20:20.898350,248,-1211.4,-0.0034,-0.0207,1.1679
2025-06-10 18:20:20.998350,248,-949.3,-0.007,-0.0209,1.1679
2025-06-10 18:20:21.098350,248,-556.1,-0.0058,-0.0229,1.1667
2025-06-10 18:20:20.928040,251,-425.0,-0.0046,-0.0212,1.1743
2025-06-10 18:20:21.028040,251,-949.3,-0.0043,-0.0239,1.1735
2025-06-10 18:20:21.128040,251,-949.3,-0.007,-0.0244,1.1767
2025-06-10 18:20:21.196016,253,-949.3,-0.007,-0.0244,1.1767
2025-06-10 18:20:21.296016,253,-949.3,-0.0036,-0.02,1.1701
2025-06-10 18:20:21.396016,253,-949.3,-0.0014,-0.0217,1.1699
2025-06-10 18:20:21.208244,254,-949.3,-0.0036,-0.02,1.1701
2025-06-10 18:20:21.308244,254,-949.3,-0.0014,-0.0217,1.1699
2025-06-10 18:20:21.408244,254,-1080.4,-0.0058,-0.0246,1.1599
2025-06-10 18:20:21.796980,3,-949.3,-0.0041,-0.0295,1.1721
2025-06-10 18:20:21.896980,3,-818.2,-0.0041,-0.0256,1.1611
2025-06-10 18:20:21.996980,3,-425.0,-0.0024,-0.0205,1.1645
2025-06-10 18:20:22.108277,7,-949.3,-0.0075,-0.0229,1.1713
2025-06-10 18:20:22.208277,7,-949.3,-0.0053,-0.0217,1.1701
2025-06-10 18:20:22.308277,7,-949.3,-0.0053,-0.0253,1.1674
2025-06-10 18:20:22.734352,13,-556.1,-0.0046,-0.0192,1.163
2025-06-10 18:20:22.834352,13,-949.3,-0.0078,-0.0183,1.1718
2025-06-10 18:20:22.934352,13,-1211.4,-0.0078,-0.0256,1.1687
2025-06-10 18:20:23.108070,17,-818.2,-0.0073,-0.0197,1.1657
2025-06-10 18:20:23.208070,17,-1211.4,-0.0031,-0.0212,1.1696
2025-06-10 18:20:23.308070,17,-1211.4,-0.0029,-0.0222,1.1669
2025-06-10 18:20:23.908012,25,-1604.7,-0.0012,-0.017,1.1701
2025-06-10 18:20:24.008012,25,-1604.7,-0.0053,-0.0266,1.1704
2025-06-10 18:20:24.108012,25,-1211.4,-0.0041,-0.0219,1.1665
2025-06-10 18:20:24.585259,31,-818.2,-0.0039,-0.0292,1.1699
2025-06-10 18:20:24.685259,31,-818.2,-0.0041,-0.0229,1.1669
2025-06-10 18:20:24.785259,31,-556.1,-0.0048,-0.0266,1.1652
2025-06-10 18:20:24.808123,34,-687.2,-0.0026,-0.0263,1.1721
2025-06-10 18:20:24.908123,34,-818.2,-0.0058,-0.0244,1.1657
2025-06-10 18:20:25.008123,34,-818.2,-0.0048,-0.0239,1.1684
2025-06-10 18:20:25.143619,37,-687.2,-0.0058,-0.0251,1.1691
2025-06-10 18:20:25.243619,37,-556.1,-0.0041,-0.0229,1.1643
2025-06-10 18:20:25.343619,37,-687.2,-0.0034,-0.0234,1.164
2025-06-10 18:20:25.751241,43,-949.3,-0.0046,-0.0251,1.1655
2025-06-10 18:20:25.851241,43,-818.2,-0.0043,-0.0195,1.1689
2025-06-10 18:20:25.951241,43,-818.2,-0.0053,-0.0207,1.173
2025-06-10 18:20:26.689635,52,-1080.4,0.0009,-0.0219,1.1726
2025-06-10 18:20:26.789635,52,-1080.4,-0.0048,-0.0222,1.1704
2025-06-10 18:20:26.889635,52,-687.2,-0.0014,-0.0224,1.164
2025-06-10 18:20:26.705548,53,-1080.4,-0.0048,-0.0222,1.1704
2025-06-10 18:20:26.805548,53,-687.2,-0.0014,-0.0224,1.164
2025-06-10 18:20:26.905548,53,-293.9,-0.0051,-0.0234,1.1708
2025-06-10 18:20:27.245641,58,-556.1,-0.0056,-0.0234,1.1674
2025-06-10 18:20:27.345641,58,-687.2,-0.0039,-0.0224,1.1647
2025-06-10 18:20:27.445641,58,-687.2,-0.0065,-0.0217,1.1652
2025-06-10 18:20:28.107917,67,-1080.4,-0.0019,-0.0205,1.1613
2025-06-10 18:20:28.207917,67,-818.2,-0.007,-0.0285,1.1667
2025-06-10 18:20:28.307917,67,-1080.4,-0.0036,-0.0241,1.1662
2025-06-10 18:20:28.789292,73,-687.2,-0.0048,-0.0219,1.1706
2025-06-10 18:20:28.889292,73,-818.2,-0.0024,-0.0197,1.1679
2025-06-10 18:20:28.989292,73,-1342.5,-0.0026,-0.0207,1.1723
2025-06-10 18:20:29.007866,76,-1342.5,-0.0053,-0.0212,1.1652
2025-06-10 18:20:29.107866,76,-818.2,-0.0036,-0.0263,1.1716
2025-06-10 18:20:29.207866,76,-687.2,-0.0053,-0.0236,1.1684
2025-06-10 18:20:29.319716,79,-425.0,-0.0063,-0.0212,1.166
2025-06-10 18:20:29.419716,79,-949.3,-0.0017,-0.0266,1.1687
2025-06-10 18:20:29.519716,79,-1080.4,-0.0056,-0.0241,1.1684
2025-06-10 18:20:30.563198,91,-556.1,-0.0043,-0.0229,1.1721
2025-06-10 18:20:30.663198,91,-293.9,-0.0048,-0.0241,1.1655
2025-06-10 18:20:30.763198,91,-818.2,-0.0007,-0.0236,1.1716
2025-06-10 18:20:31.406640,100,-1866.8,-0.0024,-0.0249,1.163
2025-06-10 18:20:31.506640,100,-1473.6,-0.0043,-0.027,1.1687
2025-06-10 18:20:31.606640,100,-1080.4,-0.0026,-0.0283,1.1679
2025-06-10 18:20:31.747533,103,-687.2,-0.0031,-0.0273,1.1655
2025-06-10 18:20:31.847533,103,-687.2,-0.0026,-0.0239,1.163
2025-06-10 18:20:31.947533,103,-818.2,-0.0046,-0.02,1.1667
2025-06-10 18:20:32.647150,112,-162.9,-0.0041,-0.0219,1.1684
2025-06-10 18:20:32.747150,112,-293.9,-0.0034,-0.0209,1.1691
2025-06-10 18:20:32.847150,112,-425.0,-0.007,-0.0246,1.1699
2025-06-10 18:20:32.905999,115,-556.1,-0.0024,-0.0256,1.1701
2025-06-10 18:20:33.005999,115,-687.2,-0.0041,-0.0234,1.1677
2025-06-10 18:20:33.105999,115,-687.2,-0.0029,-0.0219,1.1689
2025-06-10 18:20:33.005395,116,-687.2,-0.0041,-0.0234,1.1677
2025-06-10 18:20:33.105395,116,-687.2,-0.0029,-0.0219,1.1689
2025-06-10 18:20:33.205395,116,-556.1,-0.007,-0.0207,1.1657
2025-06-10 18:20:33.526760,121,-687.2,-0.0061,-0.0263,1.1662
2025-06-10 18:20:33.626760,121,-818.2,-0.0078,-0.0256,1.1706
2025-06-10 18:20:33.726760,121,-949.3,-0.0024,-0.0256,1.1613
2025-06-10 18:20:33.805850,124,-949.3,-0.0068,-0.0236,1.1716
2025-06-10 18:20:33.905850,124,-818.2,-0.0051,-0.0229,1.1662
2025-06-10 18:20:34.005850,124,-1080.4,-0.0065,-0.0219,1.1623
2025-06-10 18:20:34.105688,125,-818.2,-0.0051,-0.0229,1.1662
2025-06-10 18:20:34.205688,125,-1080.4,-0.0065,-0.0219,1.1623
2025-06-10 18:20:34.305688,125,-1080.4,-0.0039,-0.0231,1.1667
2025-06-10 18:20:34.711872,133,-818.2,-0.0024,-0.0224,1.1645
2025-06-10 18:20:34.811872,133,-687.2,-0.0017,-0.0209,1.1655
2025-06-10 18:20:34.911872,133,-687.2,-0.0026,-0.027,1.164
2025-06-10 18:20:35.046105,136,-1211.4,-0.0039,-0.0227,1.1672
2025-06-10 18:20:35.146105,136,-949.3,-0.0036,-0.0253,1.1728
2025-06-10 18:20:35.246105,136,-293.9,-0.0041,-0.0236,1.1699
2025-06-10 18:20:35.670246,142,-1080.4,-0.0036,-0.0214,1.1669
2025-06-10 18:20:35.770246,142,-556.1,-0.0036,-0.019,1.166
2025-06-10 18:20:35.870246,142,-556.1,-0.0058,-0.0268,1.1669
2025-06-10 18:20:35.934855,145,-556.1,0.0004,-0.0227,1.1662
2025-06-10 18:20:36.034855,145,-425.0,-0.0036,-0.0236,1.1608
2025-06-10 18:20:36.134855,145,-556.1,-0.0041,-0.0231,1.1669
2025-06-10 18:20:36.504929,148,-687.2,-0.0034,-0.0229,1.1621
2025-06-10 18:20:36.604929,148,-556.1,-0.0048,-0.0229,1.1682
2025-06-10 18:20:36.704929,148,-818.2,-0.007,-0.0229,1.1652
2025-06-10 18:20:36.521154,151,-1211.4,-0.0039,-0.0224,1.1738
2025-06-10 18:20:36.621154,151,-1211.4,-0.0034,-0.0212,1.1701
2025-06-10 18:20:36.721154,151,-818.2,-0.0009,-0.0209,1.1687
2025-06-10 18:20:36.720864,153,-818.2,-0.0009,-0.0209,1.1687
2025-06-10 18:20:36.820864,153,-556.1,-0.0041,-0.0236,1.1643
2025-06-10 18:20:36.920864,153,-687.2,-0.0048,-0.0212,1.1738
2025-06-10 18:20:37.054200,156,-687.2,-0.0002,-0.0263,1.1662
2025-06-10 18:20:37.154200,156,-293.9,-0.0012,-0.0224,1.1704
2025-06-10 18:20:37.254200,156,-425.0,-0.0021,-0.0256,1.1733
2025-06-10 18:20:37.148648,157,-293.9,-0.0012,-0.0224,1.1704
2025-06-10 18:20:37.248648,157,-425.0,-0.0021,-0.0256,1.1733
2025-06-10 18:20:37.348648,157,-1080.4,-0.0031,-0.0209,1.1684
2025-06-10 18:20:37.207999,158,-425.0,-0.0021,-0.0256,1.1733
2025-06-10 18:20:37.307999,158,-1080.4,-0.0031,-0.0209,1.1684
2025-06-10 18:20:37.407999,158,-1211.4,-0.0019,-0.0212,1.1655
2025-06-10 18:20:37.349958,159,-1080.4,-0.0031,-0.0209,1.1684
2025-06-10 18:20:37.449958,159,-1211.4,-0.0019,-0.0212,1.1655
2025-06-10 18:20:37.549958,159,-818.2,-0.0019,-0.0231,1.166
2025-06-10 18:20:37.588924,161,-818.2,-0.0019,-0.0231,1.166
2025-06-10 18:20:37.688924,161,-556.1,-0.0043,-0.0251,1.1662
2025-06-10 18:20:37.788924,161,-1080.4,-0.0075,-0.0183,1.1711
2025-06-10 18:20:37.606618,162,-556.1,-0.0043,-0.0251,1.1662
2025-06-10 18:20:37.706618,162,-1080.4,-0.0075,-0.0183,1.1711
2025-06-10 18:20:37.806618,162,-1211.4,-0.0056,-0.0195,1.1672
2025-06-10 18:20:37.705615,163,-1080.4,-0.0075,-0.0183,1.1711
2025-06-10 18:20:37.805615,163,-1211.4,-0.0056,-0.0195,1.1672
2025-06-10 18:20:37.905615,163,-1080.4,-0.0048,-0.02,1.1696
2025-06-10 18:20:37.889362,164,-1211.4,-0.0056,-0.0195,1.1672
2025-06-10 18:20:37.989362,164,-1080.4,-0.0048,-0.02,1.1696
2025-06-10 18:20:38.089362,164,-949.3,-0.0004,-0.0219,1.1701
2025-06-10 18:20:37.905342,165,-1080.4,-0.0048,-0.02,1.1696
2025-06-10 18:20:38.005342,165,-949.3,-0.0004,-0.0219,1.1701
2025-06-10 18:20:38.105342,165,-687.2,-0.0009,-0.0192,1.1721
2025-06-10 18:20:38.252043,168,-425.0,-0.0029,-0.0217,1.1704
2025-06-10 18:20:38.352043,168,-556.1,-0.0061,-0.0241,1.1682
2025-06-10 18:20:38.452043,168,-1080.4,-0.0031,-0.0212,1.1662
2025-06-10 18:20:38.404866,170,-1080.4,-0.0031,-0.0212,1.1662
2025-06-10 18:20:38.504866,170,-1080.4,-0.0053,-0.0258,1.1628
2025-06-10 18:20:38.604866,170,-687.2,-0.0012,-0.03,1.1696
2025-06-10 18:20:38.583872,171,-1080.4,-0.0053,-0.0258,1.1628
2025-06-10 18:20:38.683872,171,-687.2,-0.0012,-0.03,1.1696
2025-06-10 18:20:38.783872,171,-687.2,-0.0046,-0.02,1.1706
2025-06-10 18:20:38.745531,173,-687.2,-0.0046,-0.02,1.1706
2025-06-10 18:20:38.845531,173,-687.2,-0.0048,-0.0244,1.1684
2025-06-10 18:20:38.945531,173,-687.2,-0.0061,-0.02,1.1757
2025-06-10 18:20:38.804760,174,-687.2,-0.0048,-0.0244,1.1684
2025-06-10 18:20:38.904760,174,-687.2,-0.0061,-0.02,1.1757
2025-06-10 18:20:39.004760,174,-687.2,-0.0046,-0.0231,1.1706
2025-06-10 18:20:39.148724,177,-293.9,-0.0021,-0.0207,1.1757
2025-06-10 18:20:39.248724,177,-556.1,-0.0051,-0.0268,1.1652
2025-06-10 18:20:39.348724,177,-818.2,-0.0041,-0.0268,1.1679
2025-06-10 18:20:39.206337,178,-556.1,-0.0051,-0.0268,1.1652
2025-06-10 18:20:39.306337,178,-818.2,-0.0041,-0.0268,1.1679
2025-06-10 18:20:39.406337,178,-687.2,-0.0065,-0.0227,1.165
2025-06-10 18:20:39.506218,180,-687.2,-0.0065,-0.0227,1.165
2025-06-10 18:20:39.606218,180,-556.1,-0.0034,-0.0227,1.1679
2025-06-10 18:20:39.706218,180,-425.0,-0.009,-0.0229,1.1706
2025-06-10 18:20:39.606254,182,-425.0,-0.009,-0.0229,1.1706
2025-06-10 18:20:39.706254,182,-293.9,-0.0043,-0.0236,1.166
2025-06-10 18:20:39.806254,182,-425.0,-0.0021,-0.0227,1.1652
2025-06-10 18:20:39.707586,183,-293.9,-0.0043,-0.0236,1.166
2025-06-10 18:20:39.807586,183,-425.0,-0.0021,-0.0227,1.1652
2025-06-10 18:20:39.907586,183,-556.1,-0.0021,-0.0197,1.1706
2025-06-10 18:20:39.856486,184,-425.0,-0.0021,-0.0227,1.1652
2025-06-10 18:20:39.956486,184,-556.1,-0.0021,-0.0197,1.1706
2025-06-10 18:20:40.056486,184,-818.2,-0.007,-0.0244,1.175
2025-06-10 18:20:40.006296,186,-818.2,-0.007,-0.0244,1.175
2025-06-10 18:20:40.106296,186,-687.2,-0.0012,-0.0261,1.1669
2025-06-10 18:20:40.206296,186,-556.1,-0.0041,-0.0241,1.1657
2025-06-10 18:20:40.192417,187,-687.2,-0.0012,-0.0261,1.1669
2025-06-10 18:20:40.292417,187,-556.1,-0.0041,-0.0241,1.1657
2025-06-10 18:20:40.392417,187,-949.3,-0.0009,-0.0273,1.1674
2025-06-10 18:20:40.390297,189,-949.3,-0.0009,-0.0273,1.1674
2025-06-10 18:20:40.490297,189,-687.2,-0.007,-0.0183,1.1716
2025-06-10 18:20:40.590297,189,-556.1,-0.0051,-0.0249,1.1662
2025-06-10 18:20:40.451815,190,-687.2,-0.007,-0.0183,1.1716
2025-06-10 18:20:40.551815,190,-556.1,-0.0051,-0.0249,1.1662
2025-06-10 18:20:40.651815,190,-818.2,-0.0078,-0.0217,1.1657
2025-06-10 18:20:40.506164,191,-556.1,-0.0051,-0.0249,1.1662
2025-06-10 18:20:40.606164,191,-818.2,-0.0078,-0.0217,1.1657
2025-06-10 18:20:40.706164,191,-818.2,-0.0053,-0.0236,1.1667
2025-06-10 18:20:40.791485,193,-818.2,-0.0053,-0.0236,1.1667
2025-06-10 18:20:40.891485,193,-556.1,-0.0065,-0.0205,1.1677
2025-06-10 18:20:40.991485,193,-425.0,-0.0039,-0.0239,1.1672
2025-06-10 18:20:40.877816,194,-556.1,-0.0065,-0.0205,1.1677
2025-06-10 18:20:40.977816,194,-425.0,-0.0039,-0.0239,1.1672
2025-06-10 18:20:41.077816,194,-556.1,-0.0053,-0.0236,1.1682
2025-06-10 18:20:40.922624,195,-425.0,-0.0039,-0.0239,1.1672
2025-06-10 18:20:41.022624,195,-556.1,-0.0053,-0.0236,1.1682
2025-06-10 18:20:41.122624,195,-687.2,-0.0061,-0.0197,1.1684
2025-06-10 18:20:41.047370,196,-556.1,-0.0053,-0.0236,1.1682
2025-06-10 18:20:41.147370,196,-687.2,-0.0061,-0.0197,1.1684
2025-06-10 18:20:41.247370,196,-687.2,-0.0107,-0.0195,1.1748
2025-06-10 18:20:41.151308,197,-687.2,-0.0061,-0.0197,1.1684
2025-06-10 18:20:41.251308,197,-687.2,-0.0107,-0.0195,1.1748
2025-06-10 18:20:41.351308,197,-425.0,-0.007,-0.018,1.1667
2025-06-10 18:20:41.243898,198,-687.2,-0.0107,-0.0195,1.1748
2025-06-10 18:20:41.343898,198,-425.0,-0.007,-0.018,1.1667
2025-06-10 18:20:41.443898,198,-556.1,-0.0053,-0.0236,1.1689
2025-06-10 18:20:41.308261,199,-425.0,-0.007,-0.018,1.1667
2025-06-10 18:20:41.408261,199,-556.1,-0.0053,-0.0236,1.1689
2025-06-10 18:20:41.508261,199,-687.2,-0.0051,-0.0273,1.1708
2025-06-10 18:20:41.605856,202,-818.2,-0.0053,-0.0229,1.166
2025-06-10 18:20:41.705856,202,-949.3,-0.0012,-0.0253,1.166
2025-06-10 18:20:41.805856,202,-687.2,0.0021,-0.0229,1.1723
