timestamp,packet_id,pressure,accel_x,accel_y,accel_z
2025-06-04 14:39:10.307553,199,-687.7,-0.0231,-0.0258,1.1601
2025-06-04 14:39:10.407553,199,-687.7,-0.0239,-0.0283,1.1582
2025-06-04 14:39:10.507553,199,-818.7,-0.0227,-0.029,1.1621
2025-06-04 14:39:10.444562,201,-818.7,-0.0227,-0.029,1.1621
2025-06-04 14:39:10.544562,201,-687.7,-0.0219,-0.0285,1.164
2025-06-04 14:39:10.644562,201,-687.7,-0.0185,-0.0263,1.1625
2025-06-04 14:39:10.645889,203,-687.7,-0.0185,-0.0263,1.1625
2025-06-04 14:39:10.745889,203,-556.6,-0.0209,-0.0327,1.164
2025-06-04 14:39:10.845889,203,-687.7,-0.0224,-0.0292,1.1618
2025-06-04 14:39:11.751558,214,-687.7,-0.0227,-0.0292,1.165
2025-06-04 14:39:11.851558,214,-687.7,-0.02,-0.028,1.1625
2025-06-04 14:39:11.951558,214,-556.6,-0.0234,-0.028,1.1525
2025-06-04 14:39:12.098414,217,-818.7,-0.0244,-0.0307,1.1601
2025-06-04 14:39:12.198414,217,-687.7,-0.0229,-0.0302,1.1606
2025-06-04 14:39:12.298414,217,-294.4,-0.0219,-0.0297,1.1586
2025-06-04 14:39:12.257305,219,-294.4,-0.0219,-0.0297,1.1586
2025-06-04 14:39:12.357305,219,-556.6,-0.0234,-0.0307,1.1621
2025-06-04 14:39:12.457305,219,-556.6,-0.0222,-0.0278,1.1547
2025-06-04 14:39:13.303603,230,-556.6,-0.0207,-0.0302,1.1586
2025-06-04 14:39:13.403603,230,-556.6,-0.0214,-0.027,1.1611
2025-06-04 14:39:13.503603,230,-425.5,-0.0227,-0.0307,1.1542
2025-06-04 14:39:13.592523,232,-425.5,-0.0227,-0.0307,1.1542
2025-06-04 14:39:13.692523,232,-556.6,-0.0229,-0.0307,1.1611
2025-06-04 14:39:13.792523,232,-687.7,-0.0249,-0.0266,1.1577
2025-06-04 14:39:13.619130,233,-556.6,-0.0229,-0.0307,1.1611
2025-06-04 14:39:13.719130,233,-687.7,-0.0249,-0.0266,1.1577
2025-06-04 14:39:13.819130,233,-687.7,-0.0246,-0.0292,1.1633
2025-06-04 14:39:13.951693,236,-687.7,-0.0209,-0.0351,1.1596
2025-06-04 14:39:14.051693,236,-425.5,-0.0249,-0.028,1.1582
2025-06-04 14:39:14.151693,236,-163.4,-0.0273,-0.0285,1.1567
2025-06-04 14:39:14.789633,244,-556.6,-0.0214,-0.029,1.1708
2025-06-04 14:39:14.889633,244,-687.7,-0.0217,-0.029,1.1608
2025-06-04 14:39:14.989633,244,-687.7,-0.02,-0.0297,1.1689
2025-06-04 14:39:14.863227,245,-687.7,-0.0217,-0.029,1.1608
2025-06-04 14:39:14.963227,245,-687.7,-0.02,-0.0297,1.1689
2025-06-04 14:39:15.063227,245,-687.7,-0.0197,-0.0268,1.1613
2025-06-04 14:39:15.090242,247,-687.7,-0.0197,-0.0268,1.1613
2025-06-04 14:39:15.190242,247,-687.7,-0.0231,-0.03,1.155
2025-06-04 14:39:15.290242,247,-556.6,-0.0231,-0.0312,1.1652
2025-06-04 14:39:15.119817,248,-687.7,-0.0231,-0.03,1.155
2025-06-04 14:39:15.219817,248,-556.6,-0.0231,-0.0312,1.1652
2025-06-04 14:39:15.319817,248,-425.5,-0.02,-0.03,1.1562
2025-06-04 14:39:16.513758,6,-163.4,-0.0222,-0.0329,1.1625
2025-06-04 14:39:16.613758,6,-556.6,-0.0261,-0.0273,1.1643
2025-06-04 14:39:16.713758,6,-687.7,-0.0217,-0.027,1.1591
2025-06-04 14:39:16.645755,7,-556.6,-0.0261,-0.0273,1.1643
2025-06-04 14:39:16.745755,7,-687.7,-0.0217,-0.027,1.1591
2025-06-04 14:39:16.845755,7,-556.6,-0.0244,-0.0251,1.1604
2025-06-04 14:39:17.192931,12,-294.4,-0.0251,-0.027,1.1525
2025-06-04 14:39:17.292931,12,-556.6,-0.0207,-0.0302,1.1638
2025-06-04 14:39:17.392931,12,-687.7,-0.0258,-0.031,1.1667
2025-06-04 14:39:17.488627,15,-556.6,-0.02,-0.027,1.1623
2025-06-04 14:39:17.588627,15,-32.3,-0.0195,-0.0268,1.1623
2025-06-04 14:39:17.688627,15,-163.4,-0.0224,-0.028,1.1601
2025-06-04 14:39:17.795948,18,-556.6,-0.0195,-0.0305,1.1591
2025-06-04 14:39:17.895948,18,-294.4,-0.0244,-0.0302,1.1616
2025-06-04 14:39:17.995948,18,-163.4,-0.0273,-0.0266,1.1599
2025-06-04 14:39:18.704410,28,-294.4,-0.0219,-0.0322,1.1547
2025-06-04 14:39:18.804410,28,-294.4,-0.0234,-0.0273,1.1643
2025-06-04 14:39:18.904410,28,-687.7,-0.0209,-0.0288,1.1616
2025-06-04 14:39:19.009234,30,-687.7,-0.0209,-0.0288,1.1616
2025-06-04 14:39:19.109234,30,-556.6,-0.0231,-0.0275,1.1601
2025-06-04 14:39:19.209234,30,-425.5,-0.02,-0.0312,1.1569
2025-06-04 14:39:19.046655,31,-556.6,-0.0231,-0.0275,1.1601
2025-06-04 14:39:19.146655,31,-425.5,-0.02,-0.0312,1.1569
2025-06-04 14:39:19.246655,31,-294.4,-0.0224,-0.0305,1.164
2025-06-04 14:39:19.689561,37,-425.5,-0.0222,-0.0256,1.1616
2025-06-04 14:39:19.789561,37,-294.4,-0.0251,-0.0314,1.1635
2025-06-04 14:39:19.889561,37,-163.4,-0.0202,-0.0292,1.1628
2025-06-04 14:39:20.260633,43,-425.5,-0.0224,-0.0283,1.1655
2025-06-04 14:39:20.360633,43,-425.5,-0.0219,-0.0288,1.1616
2025-06-04 14:39:20.460633,43,-425.5,-0.0209,-0.028,1.1625
2025-06-04 14:39:21.964310,60,-556.6,-0.0251,-0.03,1.163
2025-06-04 14:39:22.064310,60,-687.7,-0.0251,-0.0312,1.1564
2025-06-04 14:39:22.164310,60,-425.5,-0.0249,-0.0297,1.1662
2025-06-04 14:39:22.344728,64,-556.6,-0.0212,-0.0297,1.156
2025-06-04 14:39:22.444728,64,-687.7,-0.0212,-0.0302,1.1623
2025-06-04 14:39:22.544728,64,-556.6,-0.0192,-0.0307,1.1621
2025-06-04 14:39:23.160396,72,-556.6,-0.0241,-0.0273,1.1547
2025-06-04 14:39:23.260396,72,-294.4,-0.0227,-0.0278,1.1599
2025-06-04 14:39:23.360396,72,-163.4,-0.0222,-0.0285,1.1567
2025-06-04 14:39:23.304967,74,-163.4,-0.0222,-0.0285,1.1567
2025-06-04 14:39:23.404967,74,-163.4,-0.0231,-0.0268,1.1621
2025-06-04 14:39:23.504967,74,-294.4,-0.0251,-0.0273,1.1613
2025-06-04 14:39:23.516749,76,-294.4,-0.0251,-0.0273,1.1613
2025-06-04 14:39:23.616749,76,-294.4,-0.0249,-0.031,1.1601
2025-06-04 14:39:23.716749,76,-556.6,-0.0236,-0.0297,1.1538
2025-06-04 14:39:24.453031,85,-687.7,-0.0212,-0.0256,1.1608
2025-06-04 14:39:24.553031,85,-425.5,-0.0236,-0.0297,1.1652
2025-06-04 14:39:24.653031,85,-32.3,-0.0258,-0.0278,1.1594
2025-06-04 14:39:24.689973,87,-32.3,-0.0258,-0.0278,1.1594
2025-06-04 14:39:24.789973,87,-294.4,-0.0246,-0.03,1.1579
2025-06-04 14:39:24.889973,87,-556.6,-0.0222,-0.0297,1.1647
2025-06-04 14:39:25.044082,91,-294.4,-0.0236,-0.0312,1.1684
2025-06-04 14:39:25.144082,91,-294.4,-0.0263,-0.0273,1.1638
2025-06-04 14:39:25.244082,91,-687.7,-0.0263,-0.0317,1.1665
2025-06-04 14:39:25.251450,93,-687.7,-0.0263,-0.0317,1.1665
2025-06-04 14:39:25.351450,93,-556.6,-0.0239,-0.0332,1.1564
2025-06-04 14:39:25.451450,93,-425.5,-0.0244,-0.031,1.1577
2025-06-04 14:39:26.617027,106,-294.4,-0.0202,-0.0307,1.1611
2025-06-04 14:39:26.717027,106,-294.4,-0.0263,-0.0302,1.1616
2025-06-04 14:39:26.817027,106,-294.4,-0.0236,-0.03,1.154
2025-06-04 14:39:27.406623,115,-425.5,-0.0195,-0.0283,1.1645
2025-06-04 14:39:27.506623,115,-425.5,-0.0187,-0.0334,1.1633
2025-06-04 14:39:27.606623,115,-294.4,-0.0209,-0.0302,1.1645
2025-06-04 14:39:28.026416,120,-556.6,-0.0236,-0.031,1.1621
2025-06-04 14:39:28.126416,120,-556.6,-0.0258,-0.0283,1.1569
2025-06-04 14:39:28.226416,120,-556.6,-0.0246,-0.0283,1.1577
2025-06-04 14:39:28.046582,121,-556.6,-0.0258,-0.0283,1.1569
2025-06-04 14:39:28.146582,121,-556.6,-0.0246,-0.0283,1.1577
2025-06-04 14:39:28.246582,121,-163.4,-0.0219,-0.0322,1.1574
2025-06-04 14:39:28.388314,124,-425.5,-0.0229,-0.0288,1.1577
2025-06-04 14:39:28.488314,124,-556.6,-0.0236,-0.03,1.1601
2025-06-04 14:39:28.588314,124,-294.4,-0.0219,-0.0329,1.1657
2025-06-04 14:39:28.596610,125,-556.6,-0.0236,-0.03,1.1601
2025-06-04 14:39:28.696610,125,-294.4,-0.0219,-0.0329,1.1657
2025-06-04 14:39:28.796610,125,-425.5,-0.0205,-0.0288,1.1604
2025-06-04 14:39:28.898619,129,-687.7,-0.0241,-0.0261,1.165
2025-06-04 14:39:28.998619,129,-425.5,-0.0207,-0.029,1.1591
2025-06-04 14:39:29.098619,129,-425.5,-0.0212,-0.0261,1.1604
2025-06-04 14:39:30.149110,142,-425.5,-0.0256,-0.0288,1.1584
2025-06-04 14:39:30.249110,142,-294.4,-0.0207,-0.0285,1.1599
2025-06-04 14:39:30.349110,142,-425.5,-0.0244,-0.029,1.1606
2025-06-04 14:39:31.602820,156,-556.6,-0.0224,-0.0297,1.1577
2025-06-04 14:39:31.702820,156,-556.6,-0.0246,-0.03,1.1606
2025-06-04 14:39:31.802820,156,-687.7,-0.0227,-0.0319,1.1584
2025-06-04 14:39:31.660101,157,-556.6,-0.0246,-0.03,1.1606
2025-06-04 14:39:31.760101,157,-687.7,-0.0227,-0.0319,1.1584
2025-06-04 14:39:31.860101,157,-818.7,-0.0229,-0.0295,1.1608
2025-06-04 14:39:33.104518,172,-163.4,-0.0219,-0.0231,1.1611
2025-06-04 14:39:33.204518,172,-425.5,-0.0187,-0.0319,1.1569
2025-06-04 14:39:33.304518,172,-294.4,-0.0227,-0.0305,1.165
2025-06-04 14:39:33.714352,178,-32.3,-0.02,-0.029,1.1594
2025-06-04 14:39:33.814352,178,-294.4,-0.0246,-0.03,1.1625
2025-06-04 14:39:33.914352,178,-556.6,-0.0231,-0.031,1.1579
2025-06-04 14:39:34.990100,190,-556.6,-0.0324,-0.0368,1.1735
2025-06-04 14:39:35.090100,190,-425.5,-0.0285,-0.03,1.1652
2025-06-04 14:39:35.190100,190,-425.5,-0.0283,-0.0256,1.1589
2025-06-04 14:39:36.699205,207,-425.5,-0.018,-0.0273,1.1625
2025-06-04 14:39:36.799205,207,-425.5,-0.019,-0.0249,1.1567
2025-06-04 14:39:36.899205,207,-556.6,-0.0244,-0.0273,1.1633
2025-06-04 14:39:36.705866,208,-425.5,-0.019,-0.0249,1.1567
2025-06-04 14:39:36.805866,208,-556.6,-0.0244,-0.0273,1.1633
2025-06-04 14:39:36.905866,208,-556.6,-0.0217,-0.0275,1.1584
2025-06-04 14:39:38.844915,229,-687.7,-0.0192,-0.0312,1.1657
2025-06-04 14:39:38.944915,229,-425.5,-0.0219,-0.0251,1.1616
2025-06-04 14:39:39.044915,229,-294.4,-0.0222,-0.0314,1.1635
2025-06-04 14:39:39.117137,232,-163.4,-0.0192,-0.031,1.1608
2025-06-04 14:39:39.217137,232,-425.5,-0.0217,-0.0266,1.166
2025-06-04 14:39:39.317137,232,-687.7,-0.0222,-0.0285,1.1608
2025-06-04 14:39:40.903597,247,-556.6,-0.0207,-0.029,1.1582
2025-06-04 14:39:41.003597,247,-556.6,-0.0202,-0.0288,1.1616
2025-06-04 14:39:41.103597,247,-556.6,-0.0229,-0.0297,1.165
2025-06-04 14:39:40.965362,250,-556.6,-0.0209,-0.0295,1.1599
2025-06-04 14:39:41.065362,250,-556.6,-0.0234,-0.0275,1.1586
2025-06-04 14:39:41.165362,250,-556.6,-0.0207,-0.0266,1.1569
2025-06-04 14:39:41.504869,0,-294.4,-0.0219,-0.0283,1.1567
2025-06-04 14:39:41.604869,0,-163.4,-0.0236,-0.0268,1.1657
2025-06-04 14:39:41.704869,0,-163.4,-0.0219,-0.029,1.1586
2025-06-04 14:39:42.498174,9,-32.3,-0.02,-0.0292,1.1633
2025-06-04 14:39:42.598174,9,-294.4,-0.0236,-0.0275,1.164
2025-06-04 14:39:42.698174,9,-294.4,-0.0231,-0.0302,1.1582
2025-06-04 14:39:43.697913,21,-163.4,-0.0222,-0.0341,1.165
2025-06-04 14:39:43.797913,21,-163.4,-0.0219,-0.0288,1.1621
2025-06-04 14:39:43.897913,21,-556.6,-0.0197,-0.0283,1.1643
2025-06-04 14:39:45.846944,43,-556.6,-0.0246,-0.0273,1.1545
2025-06-04 14:39:45.946944,43,-556.6,-0.0224,-0.0283,1.1623
2025-06-04 14:39:46.046944,43,-425.5,-0.0222,-0.0297,1.165
2025-06-04 14:39:47.803462,63,-556.6,-0.0251,-0.0268,1.1608
2025-06-04 14:39:47.903462,63,-818.7,-0.0222,-0.0322,1.1591
2025-06-04 14:39:48.003462,63,-687.7,-0.0273,-0.0266,1.165
2025-06-04 14:39:48.391367,68,-556.6,-0.0222,-0.0268,1.1647
2025-06-04 14:39:48.491367,68,-294.4,-0.0195,-0.029,1.1623
2025-06-04 14:39:48.591367,68,-32.3,-0.0227,-0.0292,1.1645
2025-06-04 14:39:48.488263,69,-294.4,-0.0195,-0.029,1.1623
2025-06-04 14:39:48.588263,69,-32.3,-0.0227,-0.0292,1.1645
2025-06-04 14:39:48.688263,69,98.8,-0.0234,-0.0285,1.1633
2025-06-04 14:39:50.214940,87,-425.5,-0.0251,-0.0302,1.1596
2025-06-04 14:39:50.314940,87,-425.5,-0.0253,-0.0288,1.152
2025-06-04 14:39:50.414940,87,-294.4,-0.0236,-0.0258,1.1606
2025-06-04 14:39:51.410528,98,-556.6,-0.0202,-0.0319,1.1625
2025-06-04 14:39:51.510528,98,-818.7,-0.0261,-0.0314,1.1601
2025-06-04 14:39:51.610528,98,-687.7,-0.0253,-0.028,1.163
2025-06-04 14:39:51.467301,99,-818.7,-0.0261,-0.0314,1.1601
2025-06-04 14:39:51.567301,99,-687.7,-0.0253,-0.028,1.163
2025-06-04 14:39:51.667301,99,-556.6,-0.0212,-0.0302,1.1679
2025-06-04 14:39:51.693142,101,-556.6,-0.0212,-0.0302,1.1679
2025-06-04 14:39:51.793142,101,-556.6,-0.0202,-0.0295,1.1601
2025-06-04 14:39:51.893142,101,-556.6,-0.0224,-0.0312,1.1496
2025-06-04 14:39:52.304122,107,-687.7,-0.0239,-0.029,1.1662
2025-06-04 14:39:52.404122,107,-556.6,-0.0249,-0.029,1.1621
2025-06-04 14:39:52.504122,107,-425.5,-0.0231,-0.0302,1.1643
2025-06-04 14:39:55.904346,144,-556.6,-0.0231,-0.0273,1.1669
2025-06-04 14:39:56.004346,144,-556.6,-0.0253,-0.0285,1.1638
2025-06-04 14:39:56.104346,144,-818.7,-0.0229,-0.0288,1.1625
2025-06-04 14:39:56.205896,147,-818.7,-0.0217,-0.0236,1.1633
2025-06-04 14:39:56.305896,147,-425.5,-0.0178,-0.0283,1.1579
2025-06-04 14:39:56.405896,147,-425.5,-0.0222,-0.0295,1.1569
2025-06-04 14:39:56.568436,150,-556.6,-0.0234,-0.0253,1.1606
2025-06-04 14:39:56.668436,150,-425.5,-0.0219,-0.0268,1.1647
2025-06-04 14:39:56.768436,150,-294.4,-0.0202,-0.0312,1.1599
2025-06-04 14:39:57.105599,156,-687.7,-0.0212,-0.0285,1.1567
2025-06-04 14:39:57.205599,156,-556.6,-0.0227,-0.0273,1.1562
2025-06-04 14:39:57.305599,156,-556.6,-0.0205,-0.0285,1.1589
2025-06-04 14:39:58.751558,172,-163.4,-0.0209,-0.0312,1.1633
2025-06-04 14:39:58.851558,172,-425.5,-0.0239,-0.0302,1.1613
2025-06-04 14:39:58.951558,172,-294.4,-0.0246,-0.0285,1.1582
2025-06-04 14:39:58.921992,174,-294.4,-0.0246,-0.0285,1.1582
2025-06-04 14:39:59.021992,174,-32.3,-0.0251,-0.0312,1.1684
2025-06-04 14:39:59.121992,174,-425.5,-0.0192,-0.0307,1.1601
2025-06-04 14:40:00.413470,189,-294.4,-0.0246,-0.0305,1.1621
2025-06-04 14:40:00.513470,189,-163.4,-0.0217,-0.0278,1.1638
2025-06-04 14:40:00.613470,189,360.9,-0.0227,-0.0297,1.156
2025-06-04 14:40:00.713657,192,229.8,-0.0251,-0.0266,1.1596
2025-06-04 14:40:00.813657,192,-163.4,-0.0236,-0.0329,1.1586
2025-06-04 14:40:00.913657,192,98.8,-0.0205,-0.0283,1.1616
2025-06-04 14:40:02.203252,207,-163.4,-0.0229,-0.0295,1.1535
2025-06-04 14:40:02.303252,207,-32.3,-0.0209,-0.0256,1.1628
2025-06-04 14:40:02.403252,207,-556.6,-0.0173,-0.0275,1.1591
2025-06-04 14:40:02.651526,209,-556.6,-0.0173,-0.0275,1.1591
2025-06-04 14:40:02.751526,209,-556.6,-0.0207,-0.0302,1.1594
2025-06-04 14:40:02.851526,209,-556.6,-0.0241,-0.0339,1.1625
2025-06-04 14:40:02.703066,211,-556.6,-0.0241,-0.0339,1.1625
2025-06-04 14:40:02.803066,211,-556.6,-0.0178,-0.0305,1.1582
2025-06-04 14:40:02.903066,211,-294.4,-0.0251,-0.0278,1.1582
2025-06-04 14:40:02.816715,213,-294.4,-0.0251,-0.0278,1.1582
2025-06-04 14:40:02.916715,213,-425.5,-0.0249,-0.0266,1.1618
2025-06-04 14:40:03.016715,213,-556.6,-0.0229,-0.0302,1.1652
2025-06-04 14:40:03.767320,222,-556.6,-0.0114,-0.0288,1.1643
2025-06-04 14:40:03.867320,222,-687.7,-0.0217,-0.0234,1.1562
2025-06-04 14:40:03.967320,222,-687.7,-0.0173,-0.031,1.1616
2025-06-04 14:40:04.405822,229,-687.7,-0.0229,-0.031,1.1625
2025-06-04 14:40:04.505822,229,-818.7,-0.0229,-0.031,1.1606
2025-06-04 14:40:04.605822,229,-294.4,-0.0229,-0.0329,1.1596
2025-06-04 14:40:05.004487,235,-425.5,-0.0261,-0.028,1.1601
2025-06-04 14:40:05.104487,235,-294.4,-0.0197,-0.03,1.1604
2025-06-04 14:40:05.204487,235,-163.4,-0.0202,-0.031,1.1552
2025-06-04 14:40:05.503750,240,-687.7,-0.0231,-0.0295,1.163
2025-06-04 14:40:05.603750,240,-556.6,-0.0217,-0.0278,1.1579
2025-06-04 14:40:05.703750,240,-425.5,-0.0241,-0.0302,1.1655
2025-06-04 14:40:06.169582,246,-294.4,-0.0246,-0.0268,1.1613
2025-06-04 14:40:06.269582,246,-425.5,-0.0212,-0.0288,1.153
2025-06-04 14:40:06.369582,246,-294.4,-0.0214,-0.0283,1.1645
2025-06-04 14:40:06.403601,249,-556.6,-0.0217,-0.0278,1.1623
2025-06-04 14:40:06.503601,249,-687.7,-0.0222,-0.029,1.1584
2025-06-04 14:40:06.603601,249,-425.5,-0.0229,-0.0275,1.1596
2025-06-04 14:40:07.063705,255,-163.4,-0.02,-0.0344,1.1591
2025-06-04 14:40:07.163705,255,-294.4,-0.0227,-0.0268,1.1645
2025-06-04 14:40:07.263705,255,-425.5,-0.0246,-0.028,1.1586
2025-06-04 14:40:07.264755,1,-425.5,-0.0246,-0.028,1.1586
2025-06-04 14:40:07.364755,1,-294.4,-0.0185,-0.0275,1.1586
2025-06-04 14:40:07.464755,1,-556.6,-0.027,-0.0295,1.1604
2025-06-04 14:40:07.649145,5,-687.7,-0.0178,-0.0354,1.1645
2025-06-04 14:40:07.749145,5,-294.4,-0.0229,-0.027,1.1557
2025-06-04 14:40:07.849145,5,-294.4,-0.0263,-0.0302,1.1689
2025-06-04 14:40:07.903563,8,-425.5,-0.018,-0.0275,1.1721
2025-06-04 14:40:08.003563,8,-425.5,-0.0224,-0.0283,1.164
2025-06-04 14:40:08.103563,8,-425.5,-0.0292,-0.0366,1.1579
2025-06-04 14:40:08.211057,10,-425.5,-0.0292,-0.0366,1.1579
2025-06-04 14:40:08.311057,10,-556.6,-0.0261,-0.0329,1.1669
2025-06-04 14:40:08.411057,10,-556.6,-0.029,-0.0229,1.1589
2025-06-04 14:40:08.567880,14,-556.6,-0.0207,-0.029,1.1569
2025-06-04 14:40:08.667880,14,-687.7,-0.0261,-0.0207,1.1669
2025-06-04 14:40:08.767880,14,-556.6,-0.0205,-0.0302,1.1577
2025-06-04 14:40:09.703712,26,-294.4,-0.0229,-0.0336,1.1616
2025-06-04 14:40:09.803712,26,-425.5,-0.0207,-0.0319,1.1616
2025-06-04 14:40:09.903712,26,-556.6,-0.0205,-0.0302,1.1608
2025-06-04 14:40:10.648659,35,-556.6,-0.0224,-0.0312,1.1623
2025-06-04 14:40:10.748659,35,-556.6,-0.0234,-0.0297,1.1596
2025-06-04 14:40:10.848659,35,-687.7,-0.0229,-0.0288,1.2343
2025-06-04 14:40:10.949834,38,-556.6,0.0,-0.0874,1.1442
2025-06-04 14:40:11.049834,38,-163.4,-0.028,-0.0332,1.1618
2025-06-04 14:40:11.149834,38,-425.5,-0.0239,-0.0307,1.1608
2025-06-04 14:40:11.004426,39,-163.4,-0.028,-0.0332,1.1618
2025-06-04 14:40:11.104426,39,-425.5,-0.0239,-0.0307,1.1608
2025-06-04 14:40:11.204426,39,-294.4,-0.02,-0.0288,1.1562
2025-06-04 14:40:11.245911,41,-294.4,-0.02,-0.0288,1.1562
2025-06-04 14:40:11.345911,41,-425.5,-0.0209,-0.0285,1.1601
2025-06-04 14:40:11.445911,41,-687.7,-0.0217,-0.0285,1.1638
2025-06-04 14:40:11.401584,42,-425.5,-0.0209,-0.0285,1.1601
2025-06-04 14:40:11.501584,42,-687.7,-0.0217,-0.0285,1.1638
2025-06-04 14:40:11.601584,42,-818.7,-0.0163,-0.0517,1.1552
2025-06-04 14:40:11.552192,44,-818.7,-0.0163,-0.0517,1.1552
2025-06-04 14:40:11.652192,44,-556.6,-0.0205,-0.0437,1.1586
2025-06-04 14:40:11.752192,44,-294.4,-0.0217,-0.0266,1.1606
2025-06-04 14:40:11.795308,46,-294.4,-0.0217,-0.0266,1.1606
2025-06-04 14:40:11.895308,46,-425.5,-0.0153,-0.0275,1.1604
2025-06-04 14:40:11.995308,46,-556.6,-0.019,-0.0227,1.1599
2025-06-04 14:40:12.786226,56,-556.6,-0.0244,-0.0305,1.1633
2025-06-04 14:40:12.886226,56,-425.5,-0.0239,-0.0285,1.1579
2025-06-04 14:40:12.986226,56,-294.4,-0.0236,-0.0292,1.1618
2025-06-04 14:40:13.605247,65,-687.7,-0.0229,-0.0307,1.1621
2025-06-04 14:40:13.705247,65,-949.8,-0.0253,-0.0305,1.1625
2025-06-04 14:40:13.805247,65,-556.6,-0.0214,-0.0317,1.1613
2025-06-04 14:40:13.905787,68,-163.4,-0.0236,-0.0327,1.1569
2025-06-04 14:40:14.005787,68,-556.6,-0.0212,-0.0336,1.1606
2025-06-04 14:40:14.105787,68,-818.7,-0.027,-0.029,1.1584
2025-06-04 14:40:14.302970,72,-818.7,-0.0212,-0.03,1.1625
2025-06-04 14:40:14.402970,72,-425.5,-0.0209,-0.0302,1.1506
2025-06-04 14:40:14.502970,72,-425.5,-0.0273,-0.0288,1.1777
2025-06-04 14:40:14.805732,77,-32.3,-0.0187,-0.027,1.1608
2025-06-04 14:40:14.905732,77,-163.4,-0.0224,-0.0295,1.1606
2025-06-04 14:40:15.005732,77,-425.5,-0.019,-0.0312,1.1604
2025-06-04 14:40:15.140135,80,-163.4,-0.0209,-0.0307,1.1599
2025-06-04 14:40:15.240135,80,-32.3,-0.0166,-0.0278,1.1596
2025-06-04 14:40:15.340135,80,-163.4,-0.027,-0.0285,1.1604
2025-06-04 14:40:15.442765,83,-163.4,-0.0229,-0.0295,1.1633
2025-06-04 14:40:15.542765,83,-163.4,-0.0195,-0.0278,1.1606
2025-06-04 14:40:15.642765,83,-556.6,-0.0229,-0.0312,1.1589
2025-06-04 14:40:15.747529,86,-687.7,-0.0183,-0.0258,1.1625
2025-06-04 14:40:15.847529,86,-556.6,-0.0241,-0.0314,1.1616
2025-06-04 14:40:15.947529,86,-425.5,-0.0258,-0.0312,1.1604
2025-06-04 14:40:17.491982,103,-687.7,-0.0217,-0.0295,1.1613
2025-06-04 14:40:17.591982,103,-294.4,-0.0214,-0.0263,1.1606
2025-06-04 14:40:17.691982,103,-556.6,-0.0214,-0.029,1.1557
2025-06-04 14:40:17.793086,106,-818.7,-0.0202,-0.0292,1.1621
2025-06-04 14:40:17.893086,106,-425.5,-0.0256,-0.029,1.1594
2025-06-04 14:40:17.993086,106,-425.5,-0.0275,-0.0266,1.1621
2025-06-04 14:40:17.884566,107,-425.5,-0.0256,-0.029,1.1594
2025-06-04 14:40:17.984566,107,-425.5,-0.0275,-0.0266,1.1621
2025-06-04 14:40:18.084566,107,-294.4,-0.0244,-0.0314,1.1604
2025-06-04 14:40:18.389788,112,-32.3,-0.0256,-0.03,1.1591
2025-06-04 14:40:18.489788,112,229.8,-0.0241,-0.0339,1.1569
2025-06-04 14:40:18.589788,112,98.8,-0.0246,-0.0305,1.1594
2025-06-04 14:40:18.406361,113,229.8,-0.0241,-0.0339,1.1569
2025-06-04 14:40:18.506361,113,98.8,-0.0246,-0.0305,1.1594
2025-06-04 14:40:18.606361,113,-163.4,-0.019,-0.031,1.1643
2025-06-04 14:40:18.713588,115,-163.4,-0.019,-0.031,1.1643
2025-06-04 14:40:18.813588,115,-425.5,-0.0227,-0.0283,1.1596
2025-06-04 14:40:18.913588,115,-556.6,-0.0217,-0.027,1.1599
2025-06-04 14:40:19.395214,122,-425.5,-0.0229,-0.0297,1.1625
2025-06-04 14:40:19.495214,122,-294.4,-0.0251,-0.029,1.1582
2025-06-04 14:40:19.595214,122,-425.5,-0.0246,-0.0292,1.1682
2025-06-04 14:40:19.915075,128,-556.6,-0.0192,-0.0305,1.1643
2025-06-04 14:40:20.015075,128,-556.6,-0.0222,-0.027,1.1608
2025-06-04 14:40:20.115075,128,-425.5,-0.0244,-0.028,1.1574
2025-06-04 14:40:20.247825,131,-163.4,-0.0217,-0.0268,1.1586
2025-06-04 14:40:20.347825,131,-556.6,-0.0219,-0.0256,1.1562
2025-06-04 14:40:20.447825,131,-425.5,-0.0249,-0.0283,1.1582
2025-06-04 14:40:21.404110,143,-687.7,-0.0219,-0.031,1.1621
2025-06-04 14:40:21.504110,143,-425.5,-0.0214,-0.0278,1.1621
2025-06-04 14:40:21.604110,143,-425.5,-0.0251,-0.0266,1.1616
2025-06-04 14:40:21.584504,144,-425.5,-0.0214,-0.0278,1.1621
2025-06-04 14:40:21.684504,144,-425.5,-0.0251,-0.0266,1.1616
2025-06-04 14:40:21.784504,144,-294.4,-0.0207,-0.0314,1.1635
2025-06-04 14:40:21.785648,146,-294.4,-0.0207,-0.0314,1.1635
2025-06-04 14:40:21.885648,146,-294.4,-0.0236,-0.0278,1.1621
2025-06-04 14:40:21.985648,146,-294.4,-0.02,-0.0285,1.1616
2025-06-04 14:40:22.584512,154,-425.5,-0.0253,-0.0314,1.1601
2025-06-04 14:40:22.684512,154,-556.6,-0.0192,-0.0305,1.1572
2025-06-04 14:40:22.784512,154,-687.7,-0.0244,-0.0302,1.1613
2025-06-04 14:40:22.647053,155,-556.6,-0.0192,-0.0305,1.1572
2025-06-04 14:40:22.747053,155,-687.7,-0.0244,-0.0302,1.1613
2025-06-04 14:40:22.847053,155,-163.4,-0.0195,-0.0305,1.1601
2025-06-04 14:40:22.903082,158,-425.5,-0.0236,-0.0273,1.1574
2025-06-04 14:40:23.003082,158,-687.7,-0.0261,-0.028,1.1577
2025-06-04 14:40:23.103082,158,-687.7,-0.0212,-0.029,1.1584
2025-06-04 14:40:23.204553,160,-687.7,-0.0212,-0.029,1.1584
2025-06-04 14:40:23.304553,160,-687.7,-0.0224,-0.03,1.166
2025-06-04 14:40:23.404553,160,-556.6,-0.0214,-0.0295,1.163
2025-06-04 14:40:23.249035,161,-687.7,-0.0224,-0.03,1.166
2025-06-04 14:40:23.349035,161,-556.6,-0.0214,-0.0295,1.163
2025-06-04 14:40:23.449035,161,-294.4,-0.0249,-0.029,1.1586
2025-06-04 14:40:23.849352,167,-556.6,-0.0219,-0.027,1.1616
2025-06-04 14:40:23.949352,167,-425.5,-0.0234,-0.0278,1.1655
2025-06-04 14:40:24.049352,167,-425.5,-0.0214,-0.0285,1.1638
2025-06-04 14:40:25.347208,182,-687.7,-0.0224,-0.0312,1.1623
2025-06-04 14:40:25.447208,182,-556.6,-0.0219,-0.0288,1.1604
2025-06-04 14:40:25.547208,182,-556.6,-0.0202,-0.0312,1.1608
2025-06-04 14:40:26.218516,191,-163.4,-0.0234,-0.0275,1.1604
2025-06-04 14:40:26.318516,191,-687.7,-0.0202,-0.0285,1.1596
2025-06-04 14:40:26.418516,191,-556.6,-0.0185,-0.0327,1.1552
2025-06-04 14:40:27.123880,200,-163.4,-0.0234,-0.0275,1.1662
2025-06-04 14:40:27.223880,200,-425.5,-0.0261,-0.0273,1.1618
2025-06-04 14:40:27.323880,200,-294.4,-0.0229,-0.0349,1.166
2025-06-04 14:40:27.695206,203,-294.4,-0.0234,-0.0251,1.1584
2025-06-04 14:40:27.795206,203,-687.7,-0.0249,-0.0266,1.1616
2025-06-04 14:40:27.895206,203,-425.5,-0.0261,-0.028,1.1674
2025-06-04 14:40:27.704324,206,-294.4,-0.0224,-0.0285,1.1584
2025-06-04 14:40:27.804324,206,-556.6,-0.0261,-0.0307,1.164
2025-06-04 14:40:27.904324,206,-556.6,-0.0217,-0.029,1.155
2025-06-04 14:40:28.303879,212,-425.5,-0.0241,-0.029,1.1545
2025-06-04 14:40:28.403879,212,-425.5,-0.0256,-0.0273,1.1621
2025-06-04 14:40:28.503879,212,-687.7,-0.0239,-0.0302,1.1567
2025-06-04 14:40:28.627008,215,-949.8,-0.0268,-0.0261,1.1594
2025-06-04 14:40:28.727008,215,-556.6,-0.0227,-0.0307,1.163
2025-06-04 14:40:28.827008,215,-294.4,-0.0217,-0.0319,1.1594
2025-06-04 14:40:29.204007,221,-425.5,-0.0227,-0.0295,1.1613
2025-06-04 14:40:29.304007,221,-425.5,-0.0175,-0.0302,1.1586
2025-06-04 14:40:29.404007,221,-425.5,-0.0224,-0.0292,1.1572
2025-06-04 14:40:30.405563,233,-687.7,-0.0244,-0.0324,1.1645
2025-06-04 14:40:30.505563,233,-687.7,-0.0236,-0.0249,1.1638
2025-06-04 14:40:30.605563,233,-556.6,-0.0268,-0.0329,1.1542
2025-06-04 14:40:31.305984,242,-163.4,-0.0209,-0.027,1.156
2025-06-04 14:40:31.405984,242,-818.7,-0.0234,-0.0302,1.1594
2025-06-04 14:40:31.505984,242,-687.7,-0.0192,-0.0273,1.1635
2025-06-04 14:40:32.115479,250,-556.6,-0.0205,-0.028,1.1604
2025-06-04 14:40:32.215479,250,-687.7,-0.0231,-0.0256,1.163
2025-06-04 14:40:32.315479,250,-425.5,-0.0231,-0.0266,1.1591
2025-06-04 14:40:32.504005,254,-163.4,-0.02,-0.0283,1.1596
2025-06-04 14:40:32.604005,254,-32.3,-0.0187,-0.0324,1.1633
2025-06-04 14:40:32.704005,254,-32.3,-0.0241,-0.0241,1.156
2025-06-04 14:40:33.405602,7,-425.5,-0.0234,-0.0302,1.1599
2025-06-04 14:40:33.505602,7,-425.5,-0.0239,-0.0314,1.153
2025-06-04 14:40:33.605602,7,-425.5,-0.02,-0.0295,1.1657
2025-06-04 14:40:34.288805,15,-425.5,-0.0251,-0.03,1.163
2025-06-04 14:40:34.388805,15,-425.5,-0.0249,-0.0278,1.1608
2025-06-04 14:40:34.488805,15,-425.5,-0.0273,-0.0278,1.1633
2025-06-04 14:40:34.305300,16,-425.5,-0.0249,-0.0278,1.1608
2025-06-04 14:40:34.405300,16,-425.5,-0.0273,-0.0278,1.1633
2025-06-04 14:40:34.505300,16,-687.7,-0.02,-0.0295,1.1555
2025-06-04 14:40:34.615367,18,-687.7,-0.02,-0.0295,1.1555
2025-06-04 14:40:34.715367,18,-425.5,-0.0195,-0.0283,1.1586
2025-06-04 14:40:34.815367,18,-294.4,-0.0244,-0.029,1.1621
2025-06-04 14:40:34.963032,22,-425.5,-0.0246,-0.028,1.164
2025-06-04 14:40:35.063032,22,-556.6,-0.0234,-0.0275,1.1621
2025-06-04 14:40:35.163032,22,-687.7,-0.0229,-0.029,1.156
2025-06-04 14:40:35.289171,25,-556.6,-0.0249,-0.0312,1.1547
2025-06-04 14:40:35.389171,25,-425.5,-0.0187,-0.0275,1.1613
2025-06-04 14:40:35.489171,25,-425.5,-0.0231,-0.0275,1.1655
2025-06-04 14:40:35.787666,30,-556.6,-0.0236,-0.0263,1.1606
2025-06-04 14:40:35.887666,30,-687.7,-0.0185,-0.0239,1.1596
2025-06-04 14:40:35.987666,30,-687.7,-0.0217,-0.0317,1.1613
2025-06-04 14:40:36.105769,34,-1080.9,-0.0207,-0.0292,1.1616
2025-06-04 14:40:36.205769,34,-949.8,-0.0205,-0.029,1.1599
2025-06-04 14:40:36.305769,34,-687.7,-0.0214,-0.0266,1.1542
2025-06-04 14:40:36.402902,37,-818.7,-0.0195,-0.0263,1.1623
2025-06-04 14:40:36.502902,37,-556.6,-0.0202,-0.0283,1.1545
2025-06-04 14:40:36.602902,37,-425.5,-0.0219,-0.028,1.1584
2025-06-04 14:40:36.991141,42,-163.4,-0.02,-0.0295,1.1577
2025-06-04 14:40:37.091141,42,-32.3,-0.0209,-0.0288,1.1567
2025-06-04 14:40:37.191141,42,-163.4,-0.02,-0.0327,1.1618
2025-06-04 14:40:37.006227,43,-32.3,-0.0209,-0.0288,1.1567
2025-06-04 14:40:37.106227,43,-163.4,-0.02,-0.0327,1.1618
2025-06-04 14:40:37.206227,43,-294.4,-0.0239,-0.0312,1.1567
2025-06-04 14:40:37.897635,51,-163.4,-0.0212,-0.027,1.1613
2025-06-04 14:40:37.997635,51,-556.6,-0.019,-0.0263,1.1647
2025-06-04 14:40:38.097635,51,-556.6,-0.0253,-0.0324,1.1564
2025-06-04 14:40:37.938383,52,-556.6,-0.019,-0.0263,1.1647
2025-06-04 14:40:38.038383,52,-556.6,-0.0253,-0.0324,1.1564
2025-06-04 14:40:38.138383,52,-163.4,-0.0249,-0.0319,1.1594
2025-06-04 14:40:38.253183,55,-32.3,-0.019,-0.0319,1.1606
2025-06-04 14:40:38.353183,55,-32.3,-0.0236,-0.0305,1.1555
2025-06-04 14:40:38.453183,55,-163.4,-0.0217,-0.0305,1.1577
2025-06-04 14:40:39.177747,64,-294.4,-0.0209,-0.0253,1.1589
2025-06-04 14:40:39.277747,64,-687.7,-0.0241,-0.0285,1.1557
2025-06-04 14:40:39.377747,64,-687.7,-0.0236,-0.0273,1.1584
2025-06-04 14:40:40.607135,77,-556.6,-0.0214,-0.0295,1.1572
2025-06-04 14:40:40.707135,77,-425.5,-0.0222,-0.0302,1.1606
2025-06-04 14:40:40.807135,77,-687.7,-0.0234,-0.0258,1.1616
2025-06-04 14:40:41.190540,82,-556.6,-0.0212,-0.0307,1.1596
2025-06-04 14:40:41.290540,82,-294.4,-0.0231,-0.0307,1.1655
2025-06-04 14:40:41.390540,82,-294.4,-0.0209,-0.0275,1.1657
2025-06-04 14:40:41.203937,84,-294.4,-0.0209,-0.0275,1.1657
2025-06-04 14:40:41.303937,84,-556.6,-0.0227,-0.03,1.165
2025-06-04 14:40:41.403937,84,-294.4,-0.0285,-0.0275,1.1567
2025-06-04 14:40:41.450244,87,-32.3,-0.0239,-0.0324,1.1606
2025-06-04 14:40:41.550244,87,-294.4,-0.0244,-0.028,1.1557
2025-06-04 14:40:41.650244,87,-425.5,-0.0202,-0.03,1.1572
2025-06-04 14:40:41.505088,88,-294.4,-0.0244,-0.028,1.1557
2025-06-04 14:40:41.605088,88,-425.5,-0.0202,-0.03,1.1572
2025-06-04 14:40:41.705088,88,-294.4,-0.0236,-0.0273,1.1643
2025-06-04 14:40:42.702886,99,-294.4,-0.0227,-0.031,1.1652
2025-06-04 14:40:42.802886,99,-556.6,-0.0253,-0.029,1.1633
2025-06-04 14:40:42.902886,99,-294.4,-0.02,-0.0319,1.1662
2025-06-04 14:40:43.484187,107,-425.5,-0.0222,-0.0295,1.163
2025-06-04 14:40:43.584187,107,-556.6,-0.0231,-0.0297,1.1594
2025-06-04 14:40:43.684187,107,-425.5,-0.0246,-0.0305,1.1574
2025-06-04 14:40:43.706073,110,-32.3,-0.0275,-0.031,1.1645
2025-06-04 14:40:43.806073,110,-163.4,-0.0227,-0.0334,1.153
2025-06-04 14:40:43.906073,110,-556.6,-0.0253,-0.0319,1.1628
2025-06-04 14:40:44.494864,117,-163.4,-0.0224,-0.0256,1.166
2025-06-04 14:40:44.594864,117,-163.4,-0.0266,-0.0292,1.1601
2025-06-04 14:40:44.694864,117,-163.4,-0.0209,-0.0275,1.1542
2025-06-04 14:40:44.889339,121,-294.4,-0.0258,-0.028,1.1613
2025-06-04 14:40:44.989339,121,-425.5,-0.0244,-0.0302,1.1589
2025-06-04 14:40:45.089339,121,-556.6,-0.0229,-0.0319,1.1533
2025-06-04 14:40:45.396329,126,-687.7,-0.0234,-0.0278,1.1589
2025-06-04 14:40:45.496329,126,-425.5,-0.0249,-0.0312,1.1591
2025-06-04 14:40:45.596329,126,-163.4,-0.0202,-0.029,1.1586
2025-06-04 14:40:45.468497,127,-425.5,-0.0249,-0.0312,1.1591
2025-06-04 14:40:45.568497,127,-163.4,-0.0202,-0.029,1.1586
2025-06-04 14:40:45.668497,127,-32.3,-0.0212,-0.0288,1.155
2025-06-04 14:40:46.302547,135,-294.4,-0.0222,-0.0302,1.1623
2025-06-04 14:40:46.402547,135,-32.3,-0.0234,-0.029,1.165
2025-06-04 14:40:46.502547,135,-32.3,-0.0234,-0.0278,1.1606
2025-06-04 14:40:46.394449,136,-32.3,-0.0234,-0.029,1.165
2025-06-04 14:40:46.494449,136,-32.3,-0.0234,-0.0278,1.1606
2025-06-04 14:40:46.594449,136,-163.4,-0.0222,-0.0295,1.1618
2025-06-04 14:40:46.663978,139,98.8,-0.0202,-0.0332,1.1582
2025-06-04 14:40:46.763978,139,229.8,-0.0246,-0.028,1.1591
2025-06-04 14:40:46.863978,139,-163.4,-0.0229,-0.031,1.1599
2025-06-04 14:40:46.917986,141,-163.4,-0.0229,-0.031,1.1599
2025-06-04 14:40:47.017986,141,-425.5,-0.0207,-0.0288,1.1655
2025-06-04 14:40:47.117986,141,-294.4,-0.0236,-0.029,1.1611
2025-06-04 14:40:46.991689,142,-425.5,-0.0207,-0.0288,1.1655
2025-06-04 14:40:47.091689,142,-294.4,-0.0236,-0.029,1.1611
2025-06-04 14:40:47.191689,142,-425.5,-0.0183,-0.029,1.1657
2025-06-04 14:40:47.194853,144,-425.5,-0.0183,-0.029,1.1657
2025-06-04 14:40:47.294853,144,-425.5,-0.0219,-0.029,1.1596
2025-06-04 14:40:47.394853,144,-425.5,-0.0222,-0.028,1.1591
2025-06-04 14:40:48.091874,153,-32.3,-0.02,-0.0297,1.1513
2025-06-04 14:40:48.191874,153,229.8,-0.0234,-0.0278,1.1574
2025-06-04 14:40:48.291874,153,229.8,-0.0219,-0.031,1.1547
2025-06-04 14:40:48.690928,159,-32.3,-0.0236,-0.0285,1.1608
2025-06-04 14:40:48.790928,159,229.8,-0.0256,-0.0319,1.1582
2025-06-04 14:40:48.890928,159,-294.4,-0.0241,-0.0283,1.1601
2025-06-04 14:40:50.597825,178,-294.4,-0.0217,-0.0263,1.1545
2025-06-04 14:40:50.697825,178,-294.4,-0.0207,-0.0266,1.1572
2025-06-04 14:40:50.797825,178,-163.4,-0.019,-0.0305,1.1594
2025-06-04 14:40:51.121857,184,-294.4,-0.0229,-0.0312,1.1623
2025-06-04 14:40:51.221857,184,-294.4,-0.0246,-0.028,1.1601
2025-06-04 14:40:51.321857,184,-163.4,-0.0224,-0.0317,1.1594
2025-06-04 14:40:52.046053,193,-425.5,-0.0214,-0.0295,1.1638
2025-06-04 14:40:52.146053,193,-294.4,-0.0197,-0.0297,1.1621
2025-06-04 14:40:52.246053,193,-294.4,-0.0217,-0.0283,1.1599
2025-06-04 14:40:52.304375,196,-294.4,-0.0263,-0.0322,1.1584
2025-06-04 14:40:52.404375,196,-294.4,-0.0227,-0.0295,1.1562
2025-06-04 14:40:52.504375,196,-294.4,-0.0244,-0.028,1.1608
2025-06-04 14:40:52.590600,198,-294.4,-0.0244,-0.028,1.1608
2025-06-04 14:40:52.690600,198,-294.4,-0.0214,-0.029,1.163
2025-06-04 14:40:52.790600,198,-294.4,-0.0244,-0.0305,1.1604
2025-06-04 14:40:53.020606,203,-163.4,-0.0249,-0.0292,1.1596
2025-06-04 14:40:53.120606,203,-163.4,-0.0219,-0.0324,1.1625
2025-06-04 14:40:53.220606,203,-425.5,-0.0231,-0.031,1.1611
2025-06-04 14:40:54.743066,220,-556.6,-0.0234,-0.0329,1.1577
2025-06-04 14:40:54.843066,220,-425.5,-0.0258,-0.029,1.1584
2025-06-04 14:40:54.943066,220,-556.6,-0.0278,-0.0302,1.1591
2025-06-04 14:40:55.049959,223,-556.6,-0.0256,-0.0263,1.1616
2025-06-04 14:40:55.149959,223,-294.4,-0.0222,-0.031,1.1633
2025-06-04 14:40:55.249959,223,-556.6,-0.0258,-0.0319,1.165
2025-06-04 14:40:55.900537,231,-294.4,-0.0224,-0.0288,1.1625
2025-06-04 14:40:56.000537,231,-163.4,-0.0253,-0.0302,1.1599
2025-06-04 14:40:56.100537,231,-32.3,-0.0229,-0.0327,1.1628
2025-06-04 14:40:55.904626,232,-163.4,-0.0253,-0.0302,1.1599
2025-06-04 14:40:56.004626,232,-32.3,-0.0229,-0.0327,1.1628
2025-06-04 14:40:56.104626,232,-294.4,-0.0224,-0.0305,1.1584
2025-06-04 14:40:56.503035,238,-556.6,-0.0239,-0.0288,1.1616
2025-06-04 14:40:56.603035,238,-556.6,-0.0212,-0.0305,1.1701
2025-06-04 14:40:56.703035,238,-556.6,-0.0197,-0.0319,1.1601
2025-06-04 14:40:57.402934,247,-818.7,-0.0251,-0.0322,1.1616
2025-06-04 14:40:57.502934,247,-687.7,-0.0224,-0.0278,1.163
2025-06-04 14:40:57.602934,247,-687.7,-0.0219,-0.029,1.1635
2025-06-04 14:40:57.696054,249,-687.7,-0.0219,-0.029,1.1635
2025-06-04 14:40:57.796054,249,-556.6,-0.0197,-0.0283,1.1584
2025-06-04 14:40:57.896054,249,-687.7,-0.0246,-0.0302,1.1608
2025-06-04 14:40:58.063235,253,-425.5,-0.0236,-0.029,1.1611
2025-06-04 14:40:58.163235,253,-556.6,-0.0207,-0.0314,1.1616
2025-06-04 14:40:58.263235,253,-163.4,-0.0212,-0.03,1.1555
2025-06-04 14:41:00.753168,24,-556.6,-0.0207,-0.0278,1.1547
2025-06-04 14:41:00.853168,24,-818.7,-0.0183,-0.0285,1.1589
2025-06-04 14:41:00.953168,24,-556.6,-0.0202,-0.0319,1.1677
2025-06-04 14:41:01.304640,30,-425.5,-0.0234,-0.0334,1.1635
2025-06-04 14:41:01.404640,30,-687.7,-0.0231,-0.0292,1.1557
2025-06-04 14:41:01.504640,30,-556.6,-0.0231,-0.028,1.1611
2025-06-04 14:41:01.890174,33,-425.5,-0.0207,-0.03,1.1606
2025-06-04 14:41:01.990174,33,-294.4,-0.0212,-0.0297,1.1621
2025-06-04 14:41:02.090174,33,-294.4,-0.0251,-0.0275,1.1569
2025-06-04 14:41:03.103809,47,-294.4,-0.0246,-0.0285,1.1616
2025-06-04 14:41:03.203809,47,-425.5,-0.0222,-0.031,1.1596
2025-06-04 14:41:03.303809,47,-163.4,-0.0212,-0.0297,1.163
2025-06-04 14:41:03.143074,48,-425.5,-0.0222,-0.031,1.1596
2025-06-04 14:41:03.243074,48,-163.4,-0.0212,-0.0297,1.163
2025-06-04 14:41:03.343074,48,-425.5,-0.0222,-0.0292,1.1677
2025-06-04 14:41:03.785251,54,-294.4,-0.0209,-0.0312,1.1579
2025-06-04 14:41:03.885251,54,-294.4,-0.0236,-0.0312,1.1643
2025-06-04 14:41:03.985251,54,-425.5,-0.0246,-0.0283,1.1579
2025-06-04 14:41:03.988162,56,-425.5,-0.0246,-0.0283,1.1579
2025-06-04 14:41:04.088162,56,-556.6,-0.0192,-0.0292,1.1572
2025-06-04 14:41:04.188162,56,-425.5,-0.0246,-0.0278,1.1596
2025-06-04 14:41:04.003964,57,-556.6,-0.0192,-0.0292,1.1572
2025-06-04 14:41:04.103964,57,-425.5,-0.0246,-0.0278,1.1596
2025-06-04 14:41:04.203964,57,-425.5,-0.0249,-0.0285,1.1523
2025-06-04 14:41:04.344313,60,-556.6,-0.0239,-0.0307,1.1584
2025-06-04 14:41:04.444313,60,-425.5,-0.0207,-0.0261,1.1599
2025-06-04 14:41:04.544313,60,-425.5,-0.0205,-0.0292,1.1594
2025-06-04 14:41:04.596304,62,-425.5,-0.0205,-0.0292,1.1594
2025-06-04 14:41:04.696304,62,-294.4,-0.0249,-0.0314,1.1562
2025-06-04 14:41:04.796304,62,-294.4,-0.0212,-0.03,1.1601
2025-06-04 14:41:04.903816,66,-425.5,-0.0227,-0.0285,1.1599
2025-06-04 14:41:05.003816,66,-425.5,-0.027,-0.0297,1.1667
2025-06-04 14:41:05.103816,66,-687.7,-0.0258,-0.03,1.1586
2025-06-04 14:41:05.187393,68,-687.7,-0.0258,-0.03,1.1586
2025-06-04 14:41:05.287393,68,-425.5,-0.0185,-0.0317,1.1577
2025-06-04 14:41:05.387393,68,-425.5,-0.02,-0.031,1.1562
2025-06-04 14:41:07.218049,89,-32.3,-0.0249,-0.0288,1.1643
2025-06-04 14:41:07.318049,89,-32.3,-0.0275,-0.0317,1.153
2025-06-04 14:41:07.418049,89,-294.4,-0.0231,-0.0295,1.1579
2025-06-04 14:41:07.888316,93,-425.5,-0.0195,-0.029,1.1611
2025-06-04 14:41:07.988316,93,-425.5,-0.0185,-0.0256,1.1613
2025-06-04 14:41:08.088316,93,-556.6,-0.0209,-0.0327,1.1604
2025-06-04 14:41:07.888779,95,-556.6,-0.0209,-0.0327,1.1604
2025-06-04 14:41:07.988779,95,-294.4,-0.0229,-0.0297,1.1567
2025-06-04 14:41:08.088779,95,-163.4,-0.0239,-0.0273,1.163
2025-06-04 14:41:08.285428,99,-163.4,-0.0285,-0.0295,1.1596
2025-06-04 14:41:08.385428,99,-163.4,-0.0246,-0.0302,1.1601
2025-06-04 14:41:08.485428,99,-294.4,-0.0249,-0.0295,1.1623
2025-06-04 14:41:08.552165,102,-294.4,-0.0214,-0.0285,1.1623
2025-06-04 14:41:08.652165,102,-556.6,-0.0266,-0.0307,1.1628
2025-06-04 14:41:08.752165,102,-425.5,-0.0283,-0.0324,1.1586
2025-06-04 14:41:08.866194,105,-163.4,-0.0244,-0.029,1.1618
2025-06-04 14:41:08.966194,105,-163.4,-0.0227,-0.0307,1.1633
2025-06-04 14:41:09.066194,105,-556.6,-0.0185,-0.0283,1.164
2025-06-04 14:41:09.790534,114,-163.4,-0.0219,-0.03,1.1643
2025-06-04 14:41:09.890534,114,98.8,-0.0256,-0.0275,1.1613
2025-06-04 14:41:09.990534,114,98.8,-0.0234,-0.0305,1.1628
2025-06-04 14:41:10.645031,123,-556.6,-0.0205,-0.0263,1.1613
2025-06-04 14:41:10.745031,123,-556.6,-0.0234,-0.031,1.156
2025-06-04 14:41:10.845031,123,-687.7,-0.0214,-0.0324,1.1623
2025-06-04 14:41:11.501515,129,-294.4,-0.0241,-0.029,1.1635
2025-06-04 14:41:11.601515,129,-556.6,-0.0212,-0.0302,1.1625
2025-06-04 14:41:11.701515,129,-425.5,-0.0207,-0.0334,1.1574
2025-06-04 14:41:12.204153,139,-163.4,-0.0207,-0.0312,1.1577
2025-06-04 14:41:12.304153,139,-32.3,-0.0263,-0.0319,1.1621
2025-06-04 14:41:12.404153,139,-294.4,-0.0239,-0.0307,1.1579
2025-06-04 14:41:12.996140,144,-294.4,-0.0163,-0.029,1.1572
2025-06-04 14:41:13.096140,144,-556.6,-0.0205,-0.0275,1.1621
2025-06-04 14:41:13.196140,144,-687.7,-0.0209,-0.028,1.1545
2025-06-04 14:41:13.961382,156,-425.5,-0.0212,-0.0317,1.1662
2025-06-04 14:41:14.061382,156,-294.4,-0.0244,-0.0322,1.1616
2025-06-04 14:41:14.161382,156,-32.3,-0.0205,-0.028,1.1569
2025-06-04 14:41:14.203887,159,-163.4,-0.0253,-0.0292,1.1601
2025-06-04 14:41:14.303887,159,-425.5,-0.0234,-0.0305,1.1621
2025-06-04 14:41:14.403887,159,-425.5,-0.0249,-0.0329,1.1567
2025-06-04 14:41:15.388706,170,-294.4,-0.0202,-0.031,1.1628
2025-06-04 14:41:15.488706,170,-949.8,-0.0234,-0.0314,1.1633
2025-06-04 14:41:15.588706,170,-687.7,-0.0241,-0.03,1.164
2025-06-04 14:41:15.730522,174,-425.5,-0.0222,-0.0329,1.1625
2025-06-04 14:41:15.830522,174,-425.5,-0.0217,-0.0317,1.1564
2025-06-04 14:41:15.930522,174,-425.5,-0.0224,-0.031,1.1694
2025-06-04 14:41:16.290119,179,-556.6,-0.0222,-0.0297,1.1618
2025-06-04 14:41:16.390119,179,-294.4,-0.0249,-0.0305,1.156
2025-06-04 14:41:16.490119,179,-163.4,-0.0214,-0.0329,1.1547
2025-06-04 14:41:16.352086,180,-294.4,-0.0249,-0.0305,1.156
2025-06-04 14:41:16.452086,180,-163.4,-0.0214,-0.0329,1.1547
2025-06-04 14:41:16.552086,180,-425.5,-0.0192,-0.0278,1.1623
2025-06-04 14:41:16.959318,186,-556.6,-0.0207,-0.0283,1.1635
2025-06-04 14:41:17.059318,186,-425.5,-0.0219,-0.0283,1.1591
2025-06-04 14:41:17.159318,186,-556.6,-0.0251,-0.0273,1.1604
2025-06-04 14:41:17.802580,195,-425.5,-0.0202,-0.0302,1.1586
2025-06-04 14:41:17.902580,195,-294.4,-0.0187,-0.0339,1.1611
2025-06-04 14:41:18.002580,195,-32.3,-0.0222,-0.0278,1.1618
2025-06-04 14:41:18.491524,201,-294.4,-0.0207,-0.0295,1.1618
2025-06-04 14:41:18.591524,201,-32.3,-0.0214,-0.028,1.1613
2025-06-04 14:41:18.691524,201,-425.5,-0.0209,-0.0288,1.1582
2025-06-04 14:41:18.758648,204,-294.4,-0.0236,-0.0292,1.1616
2025-06-04 14:41:18.858648,204,-32.3,-0.0224,-0.028,1.1645
2025-06-04 14:41:18.958648,204,-294.4,-0.0263,-0.029,1.1633
2025-06-04 14:41:19.019983,207,-556.6,-0.0239,-0.0278,1.1618
2025-06-04 14:41:19.119983,207,-556.6,-0.0266,-0.0322,1.1647
2025-06-04 14:41:19.219983,207,-163.4,-0.0249,-0.0322,1.1647
2025-06-04 14:41:19.603568,213,-32.3,-0.02,-0.0288,1.1621
2025-06-04 14:41:19.703568,213,-163.4,-0.0197,-0.0297,1.1611
2025-06-04 14:41:19.803568,213,-294.4,-0.0219,-0.0283,1.1616
2025-06-04 14:41:19.943455,216,-294.4,-0.0236,-0.0288,1.1677
2025-06-04 14:41:20.043455,216,-425.5,-0.0231,-0.0297,1.163
2025-06-04 14:41:20.143455,216,-294.4,-0.0187,-0.0324,1.166
2025-06-04 14:41:21.144688,228,-425.5,-0.0249,-0.03,1.1647
2025-06-04 14:41:21.244688,228,-425.5,-0.0249,-0.0295,1.1564
2025-06-04 14:41:21.344688,228,-163.4,-0.0205,-0.0329,1.1533
2025-06-04 14:41:21.688492,231,98.8,-0.0239,-0.0283,1.1625
2025-06-04 14:41:21.788492,231,-163.4,-0.0222,-0.0324,1.1638
2025-06-04 14:41:21.888492,231,-687.7,-0.0212,-0.0329,1.1638
2025-06-04 14:41:21.990829,236,-294.4,-0.0222,-0.0307,1.1591
2025-06-04 14:41:22.090829,236,-294.4,-0.0285,-0.027,1.1596
2025-06-04 14:41:22.190829,236,-294.4,-0.0205,-0.0283,1.1552
2025-06-04 14:41:22.006075,237,-294.4,-0.0285,-0.027,1.1596
2025-06-04 14:41:22.106075,237,-294.4,-0.0205,-0.0283,1.1552
2025-06-04 14:41:22.206075,237,-163.4,-0.0239,-0.0334,1.1584
2025-06-04 14:41:22.901784,245,-556.6,-0.0219,-0.0344,1.1669
2025-06-04 14:41:23.001784,245,-556.6,-0.0192,-0.0322,1.1601
2025-06-04 14:41:23.101784,245,-294.4,-0.0231,-0.0312,1.1589
2025-06-04 14:41:23.102639,248,-425.5,-0.0251,-0.0332,1.1601
2025-06-04 14:41:23.202639,248,-687.7,-0.0222,-0.0285,1.1606
2025-06-04 14:41:23.302639,248,-556.6,-0.0224,-0.0263,1.1655
2025-06-04 14:41:23.380714,250,-556.6,-0.0224,-0.0263,1.1655
2025-06-04 14:41:23.480714,250,-556.6,-0.0256,-0.0295,1.1628
2025-06-04 14:41:23.580714,250,-687.7,-0.0207,-0.0295,1.1616
2025-06-04 14:41:23.551813,252,-687.7,-0.0207,-0.0295,1.1616
2025-06-04 14:41:23.651813,252,-818.7,-0.0244,-0.0307,1.1635
2025-06-04 14:41:23.751813,252,-949.8,-0.0241,-0.0305,1.1591
2025-06-04 14:41:23.837050,253,-818.7,-0.0244,-0.0307,1.1635
2025-06-04 14:41:23.937050,253,-949.8,-0.0241,-0.0305,1.1591
2025-06-04 14:41:24.037050,253,-687.7,-0.0231,-0.0275,1.1633
2025-06-04 14:41:23.860401,255,-687.7,-0.0231,-0.0275,1.1633
2025-06-04 14:41:23.960401,255,-556.6,-0.0266,-0.0295,1.1645
2025-06-04 14:41:24.060401,255,-949.8,-0.0224,-0.0302,1.1579
2025-06-04 14:41:25.365601,14,-294.4,-0.0205,-0.0275,1.1662
2025-06-04 14:41:25.465601,14,-294.4,-0.0251,-0.0292,1.1582
2025-06-04 14:41:25.565601,14,-687.7,-0.0219,-0.0283,1.1586
2025-06-04 14:41:25.602685,17,-687.7,-0.0236,-0.0305,1.1657
2025-06-04 14:41:25.702685,17,-425.5,-0.0209,-0.0317,1.1577
2025-06-04 14:41:25.802685,17,-425.5,-0.0227,-0.031,1.1579
2025-06-04 14:41:25.895020,19,-425.5,-0.0227,-0.031,1.1579
2025-06-04 14:41:25.995020,19,-687.7,-0.0197,-0.03,1.1662
2025-06-04 14:41:26.095020,19,-687.7,-0.0227,-0.027,1.1606
2025-06-04 14:41:26.503068,26,-818.7,-0.0214,-0.0292,1.1584
2025-06-04 14:41:26.603068,26,-556.6,-0.0239,-0.0307,1.1574
2025-06-04 14:41:26.703068,26,-425.5,-0.0202,-0.0297,1.1562
2025-06-04 14:41:26.895331,29,-687.7,-0.0214,-0.0285,1.1621
2025-06-04 14:41:26.995331,29,-818.7,-0.0239,-0.0314,1.163
2025-06-04 14:41:27.095331,29,-556.6,-0.0246,-0.0292,1.1586
2025-06-04 14:41:27.105620,32,-425.5,-0.019,-0.0288,1.1596
2025-06-04 14:41:27.205620,32,-556.6,-0.0217,-0.0285,1.1601
2025-06-04 14:41:27.305620,32,-556.6,-0.0261,-0.0288,1.154
2025-06-04 14:41:27.703590,37,-425.5,-0.0222,-0.0317,1.1621
2025-06-04 14:41:27.803590,37,-425.5,-0.0234,-0.0278,1.1628
2025-06-04 14:41:27.903590,37,-556.6,-0.0258,-0.0302,1.1618
2025-06-04 14:41:27.704238,38,-425.5,-0.0234,-0.0278,1.1628
2025-06-04 14:41:27.804238,38,-556.6,-0.0258,-0.0302,1.1618
2025-06-04 14:41:27.904238,38,-425.5,-0.0231,-0.0297,1.163
2025-06-04 14:41:28.889720,49,-425.5,-0.0231,-0.0324,1.1645
2025-06-04 14:41:28.989720,49,-425.5,-0.0195,-0.0341,1.1608
2025-06-04 14:41:29.089720,49,-556.6,-0.0214,-0.0302,1.1606
2025-06-04 14:41:28.987502,50,-425.5,-0.0195,-0.0341,1.1608
2025-06-04 14:41:29.087502,50,-556.6,-0.0214,-0.0302,1.1606
2025-06-04 14:41:29.187502,50,-294.4,-0.0229,-0.03,1.1584
2025-06-04 14:41:30.115184,61,-818.7,-0.0268,-0.028,1.1579
2025-06-04 14:41:30.215184,61,-687.7,-0.0236,-0.027,1.1625
2025-06-04 14:41:30.315184,61,-425.5,-0.0222,-0.0302,1.1604
2025-06-04 14:41:30.742304,68,-294.4,-0.0256,-0.028,1.1552
2025-06-04 14:41:30.842304,68,-818.7,-0.0227,-0.0334,1.1665
2025-06-04 14:41:30.942304,68,-949.8,-0.0244,-0.0319,1.1616
2025-06-04 14:41:31.016420,71,-32.3,-0.0217,-0.0302,1.1635
2025-06-04 14:41:31.116420,71,-32.3,-0.0251,-0.0317,1.1623
2025-06-04 14:41:31.216420,71,-687.7,-0.0222,-0.029,1.1567
2025-06-04 14:41:31.346070,74,-687.7,-0.0229,-0.0295,1.1577
2025-06-04 14:41:31.446070,74,-687.7,-0.0239,-0.0273,1.1574
2025-06-04 14:41:31.546070,74,-425.5,-0.0212,-0.0312,1.1635
2025-06-04 14:41:32.264249,83,-294.4,-0.0229,-0.031,1.1618
2025-06-04 14:41:32.364249,83,-556.6,-0.0261,-0.0268,1.1623
2025-06-04 14:41:32.464249,83,-556.6,-0.0258,-0.0283,1.1545
2025-06-04 14:41:32.846145,89,-556.6,-0.0219,-0.0319,1.1621
2025-06-04 14:41:32.946145,89,-687.7,-0.0236,-0.031,1.1596
2025-06-04 14:41:33.046145,89,-556.6,-0.0161,-0.0295,1.1604
2025-06-04 14:41:33.390022,92,-556.6,-0.0283,-0.0302,1.1616
2025-06-04 14:41:33.490022,92,-687.7,-0.0217,-0.0288,1.1594
2025-06-04 14:41:33.590022,92,-163.4,-0.0244,-0.0329,1.1589
2025-06-04 14:41:33.406109,95,-32.3,-0.0249,-0.0305,1.1601
2025-06-04 14:41:33.506109,95,-294.4,-0.0244,-0.0317,1.1616
2025-06-04 14:41:33.606109,95,-425.5,-0.0197,-0.0312,1.1621
2025-06-04 14:41:35.846380,119,-556.6,-0.0209,-0.0295,1.1657
2025-06-04 14:41:35.946380,119,-687.7,-0.0212,-0.0292,1.1616
2025-06-04 14:41:36.046380,119,-818.7,-0.027,-0.0275,1.1599
2025-06-04 14:41:36.703898,128,-163.4,-0.0251,-0.0336,1.1599
2025-06-04 14:41:36.803898,128,-294.4,-0.0217,-0.0297,1.164
2025-06-04 14:41:36.903898,128,-425.5,-0.0207,-0.0275,1.1594
2025-06-04 14:41:37.048857,131,-425.5,-0.0246,-0.03,1.1516
2025-06-04 14:41:37.148857,131,-294.4,-0.0236,-0.0324,1.155
2025-06-04 14:41:37.248857,131,-687.7,-0.0239,-0.0295,1.1525
2025-06-04 14:41:37.393967,134,-818.7,-0.0241,-0.0322,1.1611
2025-06-04 14:41:37.493967,134,-556.6,-0.0236,-0.0288,1.1552
2025-06-04 14:41:37.593967,134,-949.8,-0.0251,-0.0263,1.1628
2025-06-04 14:41:37.402640,135,-556.6,-0.0236,-0.0288,1.1552
2025-06-04 14:41:37.502640,135,-949.8,-0.0251,-0.0263,1.1628
2025-06-04 14:41:37.602640,135,-949.8,-0.0234,-0.0307,1.1655
2025-06-04 14:41:37.642703,137,-949.8,-0.0234,-0.0307,1.1655
2025-06-04 14:41:37.742703,137,-687.7,-0.0219,-0.0329,1.1586
2025-06-04 14:41:37.842703,137,-425.5,-0.0236,-0.0268,1.1572
2025-06-04 14:41:39.129786,152,-556.6,-0.0222,-0.0307,1.163
2025-06-04 14:41:39.229786,152,-294.4,-0.0212,-0.0317,1.1579
2025-06-04 14:41:39.329786,152,-163.4,-0.0234,-0.029,1.1586
2025-06-04 14:41:39.493026,155,-294.4,-0.0239,-0.0322,1.1586
2025-06-04 14:41:39.593026,155,-294.4,-0.0236,-0.0292,1.1562
2025-06-04 14:41:39.693026,155,-294.4,-0.0244,-0.0302,1.1618
2025-06-04 14:41:39.805434,159,-163.4,-0.0183,-0.0285,1.1569
2025-06-04 14:41:39.905434,159,-294.4,-0.0217,-0.0329,1.1623
2025-06-04 14:41:40.005434,159,-163.4,-0.0236,-0.0314,1.1657
2025-06-04 14:41:40.051054,161,-163.4,-0.0236,-0.0314,1.1657
2025-06-04 14:41:40.151054,161,-163.4,-0.0246,-0.031,1.1567
2025-06-04 14:41:40.251054,161,-32.3,-0.0214,-0.0327,1.1696
2025-06-04 14:41:40.921130,170,-294.4,-0.0224,-0.0256,1.1616
2025-06-04 14:41:41.021130,170,-425.5,-0.0207,-0.0292,1.1623
2025-06-04 14:41:41.121130,170,-294.4,-0.0256,-0.029,1.163
2025-06-04 14:41:41.803441,179,-687.7,-0.0209,-0.0288,1.1669
2025-06-04 14:41:41.903441,179,-425.5,-0.0244,-0.0283,1.1608
2025-06-04 14:41:42.003441,179,-163.4,-0.0268,-0.0261,1.156
2025-06-04 14:41:42.104570,182,-294.4,-0.0236,-0.0251,1.1635
2025-06-04 14:41:42.204570,182,-687.7,-0.0195,-0.029,1.1567
2025-06-04 14:41:42.304570,182,-687.7,-0.0246,-0.0273,1.1657
2025-06-04 14:41:42.742559,188,-294.4,-0.0212,-0.0288,1.1616
2025-06-04 14:41:42.842559,188,-425.5,-0.0275,-0.0319,1.1616
2025-06-04 14:41:42.942559,188,-425.5,-0.0187,-0.0307,1.1647
2025-06-04 14:41:43.021072,191,-556.6,-0.0229,-0.0312,1.1623
2025-06-04 14:41:43.121072,191,-425.5,-0.018,-0.03,1.1643
2025-06-04 14:41:43.221072,191,-425.5,-0.0195,-0.0297,1.1674
2025-06-04 14:41:43.314316,194,-294.4,-0.0227,-0.027,1.1618
2025-06-04 14:41:43.414316,194,-294.4,-0.0244,-0.0312,1.1616
2025-06-04 14:41:43.514316,194,-556.6,-0.0241,-0.0305,1.1625
2025-06-04 14:41:43.604309,197,-818.7,-0.0253,-0.0261,1.1638
2025-06-04 14:41:43.704309,197,-687.7,-0.0253,-0.0312,1.1545
2025-06-04 14:41:43.804309,197,-687.7,-0.0197,-0.0319,1.1628
2025-06-04 14:41:43.905293,200,-556.6,-0.0219,-0.0314,1.1679
2025-06-04 14:41:44.005293,200,-556.6,-0.018,-0.0314,1.1584
2025-06-04 14:41:44.105293,200,-818.7,-0.0246,-0.0322,1.1645
2025-06-04 14:41:44.284097,203,-687.7,-0.0214,-0.0297,1.1633
2025-06-04 14:41:44.384097,203,-556.6,-0.0273,-0.0305,1.1594
2025-06-04 14:41:44.484097,203,-556.6,-0.0246,-0.0297,1.1638
2025-06-04 14:41:45.005256,209,-163.4,-0.0212,-0.0317,1.1586
2025-06-04 14:41:45.105256,209,-294.4,-0.0224,-0.031,1.1564
2025-06-04 14:41:45.205256,209,-556.6,-0.0249,-0.0317,1.1672
2025-06-04 14:41:45.006069,211,-556.6,-0.0249,-0.0317,1.1672
2025-06-04 14:41:45.106069,211,-425.5,-0.0197,-0.0312,1.1606
2025-06-04 14:41:45.206069,211,-294.4,-0.0197,-0.0314,1.1677
2025-06-04 14:41:45.419484,215,-163.4,-0.0227,-0.028,1.1628
2025-06-04 14:41:45.519484,215,-556.6,-0.0231,-0.0273,1.1594
2025-06-04 14:41:45.619484,215,-556.6,-0.0231,-0.0324,1.163
2025-06-04 14:41:45.997909,219,-425.5,-0.0219,-0.0261,1.1625
2025-06-04 14:41:46.097909,219,98.8,-0.0244,-0.0317,1.1582
2025-06-04 14:41:46.197909,219,98.8,-0.0246,-0.028,1.1628
2025-06-04 14:41:46.112298,221,98.8,-0.0246,-0.028,1.1628
2025-06-04 14:41:46.212298,221,-425.5,-0.0239,-0.0317,1.1586
2025-06-04 14:41:46.312298,221,-425.5,-0.0227,-0.0319,1.1621
2025-06-04 14:41:46.992252,230,-425.5,-0.0219,-0.0356,1.1665
2025-06-04 14:41:47.092252,230,-556.6,-0.0212,-0.0295,1.1625
2025-06-04 14:41:47.192252,230,-425.5,-0.0231,-0.0263,1.1555
2025-06-04 14:41:47.509941,236,-32.3,-0.0227,-0.0261,1.1635
2025-06-04 14:41:47.609941,236,-163.4,-0.0231,-0.0305,1.1635
2025-06-04 14:41:47.705941,236,-556.6,-0.0163,-0.0329,1.1635
2025-06-04 14:41:48.104190,242,-163.4,-0.018,-0.0324,1.1582
2025-06-04 14:41:48.204190,242,-163.4,-0.0227,-0.0275,1.166
2025-06-04 14:41:48.304190,242,-425.5,-0.0207,-0.0292,1.1633
2025-06-04 14:41:48.203923,243,-163.4,-0.0227,-0.0275,1.166
2025-06-04 14:41:48.303923,243,-425.5,-0.0207,-0.0292,1.1633
2025-06-04 14:41:48.403923,243,-687.7,-0.0231,-0.0295,1.1691
2025-06-04 14:41:48.803870,249,-556.6,-0.0246,-0.0314,1.1623
2025-06-04 14:41:48.903870,249,-294.4,-0.0227,-0.0307,1.1606
2025-06-04 14:41:49.003870,249,-425.5,-0.0253,-0.0273,1.1635
2025-06-04 14:41:49.005555,251,-425.5,-0.0253,-0.0273,1.1635
2025-06-04 14:41:49.105555,251,-818.7,-0.0209,-0.0319,1.1611
2025-06-04 14:41:49.205555,251,-687.7,-0.0227,-0.03,1.1591
2025-06-04 14:41:49.295831,252,-818.7,-0.0209,-0.0319,1.1611
2025-06-04 14:41:49.395831,252,-687.7,-0.0227,-0.03,1.1591
2025-06-04 14:41:49.495831,252,-687.7,-0.0229,-0.0297,1.1569
2025-06-04 14:41:49.346145,254,-687.7,-0.0229,-0.0297,1.1569
2025-06-04 14:41:49.446145,254,-687.7,-0.0244,-0.0295,1.1591
2025-06-04 14:41:49.546145,254,-556.6,-0.0224,-0.0295,1.1594
2025-06-04 14:41:49.925355,4,-163.4,-0.0244,-0.0297,1.1633
2025-06-04 14:41:50.025355,4,-163.4,-0.0246,-0.0297,1.1599
2025-06-04 14:41:50.125355,4,-163.4,-0.0217,-0.0268,1.1528
2025-06-04 14:41:50.504533,10,-163.4,-0.0222,-0.0314,1.1621
2025-06-04 14:41:50.604533,10,-32.3,-0.0253,-0.027,1.1584
2025-06-04 14:41:50.704533,10,-294.4,-0.0234,-0.0275,1.1625
2025-06-04 14:41:50.949920,13,-425.5,-0.0231,-0.0292,1.1516
2025-06-04 14:41:51.049920,13,-294.4,-0.0214,-0.031,1.1569
2025-06-04 14:41:51.149920,13,-163.4,-0.0187,-0.0253,1.1586
2025-06-04 14:41:51.006032,15,-163.4,-0.0187,-0.0253,1.1586
2025-06-04 14:41:51.106032,15,98.8,-0.0246,-0.0319,1.1616
2025-06-04 14:41:51.206032,15,-32.3,-0.0261,-0.0317,1.1569
2025-06-04 14:41:51.102909,16,98.8,-0.0246,-0.0319,1.1616
2025-06-04 14:41:51.202909,16,-32.3,-0.0261,-0.0317,1.1569
2025-06-04 14:41:51.302909,16,-163.4,-0.0219,-0.0261,1.1625
2025-06-04 14:41:53.174775,36,-818.7,-0.0239,-0.03,1.1633
2025-06-04 14:41:53.274775,36,-687.7,-0.0205,-0.0256,1.1572
2025-06-04 14:41:53.374775,36,-818.7,-0.0239,-0.0332,1.1643
2025-06-04 14:41:53.203942,37,-687.7,-0.0205,-0.0256,1.1572
2025-06-04 14:41:53.303942,37,-818.7,-0.0239,-0.0332,1.1643
2025-06-04 14:41:53.403942,37,-687.7,-0.0241,-0.0292,1.1625
2025-06-04 14:41:54.157036,46,98.8,-0.0227,-0.0249,1.1586
2025-06-04 14:41:54.257036,46,-32.3,-0.0207,-0.0278,1.1596
2025-06-04 14:41:54.357036,46,-425.5,-0.0258,-0.0285,1.1621
2025-06-04 14:41:54.423749,49,-163.4,-0.0192,-0.0273,1.1638
2025-06-04 14:41:54.523749,49,-32.3,-0.0231,-0.0305,1.1635
2025-06-04 14:41:54.623749,49,-425.5,-0.0234,-0.0285,1.163
2025-06-04 14:41:54.700107,51,-425.5,-0.0234,-0.0285,1.163
2025-06-04 14:41:54.800107,51,-294.4,-0.02,-0.0297,1.1572
2025-06-04 14:41:54.900107,51,98.8,-0.0219,-0.031,1.163
2025-06-04 14:41:55.306009,58,-425.5,-0.0244,-0.0246,1.1601
2025-06-04 14:41:55.406009,58,-556.6,-0.0217,-0.027,1.1525
2025-06-04 14:41:55.506009,58,-687.7,-0.0231,-0.0261,1.1564
2025-06-04 14:41:55.904150,64,-294.4,-0.0219,-0.0295,1.156
2025-06-04 14:41:56.004150,64,-556.6,-0.0209,-0.031,1.1584
2025-06-04 14:41:56.104150,64,-556.6,-0.0212,-0.0283,1.1616
2025-06-04 14:41:56.244068,67,-556.6,-0.0261,-0.0319,1.1606
2025-06-04 14:41:56.344068,67,-687.7,-0.0263,-0.0327,1.1601
2025-06-04 14:41:56.444068,67,-556.6,-0.0227,-0.0307,1.1577
2025-06-04 14:41:58.204051,87,-32.3,-0.0244,-0.0317,1.1655
2025-06-04 14:41:58.304051,87,-294.4,-0.0234,-0.0314,1.1604
2025-06-04 14:41:58.404051,87,-32.3,-0.0246,-0.0292,1.1655
2025-06-04 14:41:58.305565,88,-294.4,-0.0234,-0.0314,1.1604
2025-06-04 14:41:58.405565,88,-32.3,-0.0246,-0.0292,1.1655
2025-06-04 14:41:58.505565,88,-294.4,-0.0212,-0.0322,1.1577
2025-06-04 14:41:58.684243,91,-687.7,-0.0273,-0.0312,1.1569
2025-06-04 14:41:58.784243,91,-556.6,-0.0256,-0.0285,1.1586
2025-06-04 14:41:58.884243,91,-556.6,-0.0222,-0.0261,1.1608
2025-06-04 14:41:58.908923,93,-556.6,-0.0222,-0.0261,1.1608
2025-06-04 14:41:59.008923,93,-294.4,-0.0192,-0.0275,1.1604
2025-06-04 14:41:59.108923,93,-32.3,-0.0234,-0.0322,1.155
2025-06-04 14:41:59.491581,99,-425.5,-0.0249,-0.031,1.1611
2025-06-04 14:41:59.591581,99,-294.4,-0.031,-0.031,1.1665
2025-06-04 14:41:59.691581,99,-294.4,-0.0231,-0.0327,1.1623
2025-06-04 14:42:01.637481,121,-556.6,-0.0214,-0.0266,1.1621
2025-06-04 14:42:01.737481,121,-294.4,-0.0207,-0.0305,1.1584
2025-06-04 14:42:01.837481,121,-163.4,-0.0205,-0.0334,1.1655
2025-06-04 14:42:02.283211,127,-163.4,-0.0207,-0.0351,1.1604
2025-06-04 14:42:02.383211,127,-163.4,-0.0197,-0.0302,1.1608
2025-06-04 14:42:02.483211,127,-425.5,-0.0217,-0.0275,1.1601
2025-06-04 14:42:02.564840,130,-425.5,-0.0256,-0.0317,1.1611
2025-06-04 14:42:02.664840,130,-294.4,-0.0202,-0.0275,1.1586
2025-06-04 14:42:02.764840,130,-556.6,-0.0209,-0.0295,1.1584
2025-06-04 14:42:04.296326,147,-294.4,-0.0239,-0.0327,1.1586
2025-06-04 14:42:04.396326,147,-32.3,-0.0236,-0.0307,1.1621
2025-06-04 14:42:04.496326,147,-163.4,-0.0222,-0.031,1.1604
2025-06-04 14:42:04.445686,149,-163.4,-0.0222,-0.031,1.1604
2025-06-04 14:42:04.545686,149,-163.4,-0.0229,-0.0332,1.1601
2025-06-04 14:42:04.645686,149,-294.4,-0.0244,-0.03,1.1616
2025-06-04 14:42:04.910234,151,-294.4,-0.0244,-0.03,1.1616
2025-06-04 14:42:05.010234,151,-163.4,-0.0246,-0.0305,1.1604
2025-06-04 14:42:05.110234,151,-294.4,-0.0229,-0.0285,1.1638
2025-06-04 14:42:05.506192,160,-294.4,-0.0249,-0.0297,1.1569
2025-06-04 14:42:05.606192,160,-425.5,-0.0227,-0.0275,1.1608
2025-06-04 14:42:05.706192,160,-556.6,-0.0205,-0.0319,1.1623
2025-06-04 14:42:06.090137,165,-425.5,-0.0236,-0.0292,1.1657
2025-06-04 14:42:06.190137,165,-425.5,-0.0222,-0.0285,1.1623
2025-06-04 14:42:06.290137,165,-294.4,-0.0214,-0.0292,1.1577
2025-06-04 14:42:06.154686,166,-425.5,-0.0222,-0.0285,1.1623
2025-06-04 14:42:06.254686,166,-294.4,-0.0214,-0.0292,1.1577
2025-06-04 14:42:06.354686,166,-425.5,-0.0217,-0.031,1.1562
2025-06-04 14:42:07.374328,178,-163.4,-0.0234,-0.0295,1.1601
2025-06-04 14:42:07.474328,178,-32.3,-0.0231,-0.0305,1.1594
2025-06-04 14:42:07.574328,178,-425.5,-0.0209,-0.0295,1.1569
2025-06-04 14:42:08.631262,190,-556.6,-0.0209,-0.0283,1.1579
2025-06-04 14:42:08.731262,190,-425.5,-0.0219,-0.0319,1.1628
2025-06-04 14:42:08.831262,190,-556.6,-0.0244,-0.029,1.1572
2025-06-04 14:42:09.783829,202,-425.5,-0.0234,-0.0314,1.1574
2025-06-04 14:42:09.883829,202,-163.4,-0.0207,-0.028,1.1564
2025-06-04 14:42:09.983829,202,-32.3,-0.0244,-0.0266,1.1599
2025-06-04 14:42:10.958333,214,-425.5,-0.0239,-0.0312,1.1596
2025-06-04 14:42:11.058333,214,-163.4,-0.0224,-0.0319,1.1625
2025-06-04 14:42:11.158333,214,-294.4,-0.019,-0.0324,1.1606
2025-06-04 14:42:11.850605,223,-556.6,-0.0266,-0.0336,1.1606
2025-06-04 14:42:11.950605,223,-556.6,-0.0234,-0.0283,1.1569
2025-06-04 14:42:12.050605,223,-163.4,-0.0202,-0.03,1.1611
2025-06-04 14:42:12.102736,226,-425.5,-0.019,-0.0297,1.1604
2025-06-04 14:42:12.202736,226,-294.4,-0.0249,-0.0305,1.1633
2025-06-04 14:42:12.302736,226,-163.4,-0.0244,-0.0295,1.1613
2025-06-04 14:42:13.002685,235,229.8,-0.0217,-0.0314,1.1662
2025-06-04 14:42:13.102685,235,-32.3,-0.0205,-0.0288,1.1574
2025-06-04 14:42:13.202685,235,-294.4,-0.0229,-0.0263,1.164
2025-06-04 14:42:14.291196,247,-32.3,-0.0217,-0.0285,1.1599
2025-06-04 14:42:14.391196,247,-294.4,-0.0236,-0.0283,1.1643
2025-06-04 14:42:14.491196,247,-425.5,-0.0231,-0.0302,1.1569
2025-06-04 14:42:15.141424,0,-294.4,-0.0227,-0.0292,1.1623
2025-06-04 14:42:15.241424,0,-294.4,-0.0239,-0.0295,1.1623
2025-06-04 14:42:15.341424,0,-425.5,-0.0253,-0.0312,1.1635
2025-06-04 14:42:15.303977,2,-425.5,-0.0253,-0.0312,1.1635
2025-06-04 14:42:15.403977,2,-425.5,-0.0212,-0.029,1.1589
2025-06-04 14:42:15.503977,2,-32.3,-0.0205,-0.0292,1.1572
2025-06-04 14:42:16.042653,9,-163.4,-0.0214,-0.0305,1.1606
2025-06-04 14:42:16.142653,9,-556.6,-0.0251,-0.028,1.1586
2025-06-04 14:42:16.242653,9,-425.5,-0.0224,-0.0314,1.1684
2025-06-04 14:42:16.303988,12,-32.3,-0.0217,-0.027,1.1633
2025-06-04 14:42:16.403988,12,-294.4,-0.0195,-0.028,1.1545
2025-06-04 14:42:16.503988,12,-687.7,-0.0192,-0.0263,1.1604
2025-06-04 14:42:16.605965,15,-425.5,-0.0227,-0.0263,1.1606
2025-06-04 14:42:16.705965,15,-556.6,-0.0258,-0.028,1.1577
2025-06-04 14:42:16.805965,15,-425.5,-0.0227,-0.03,1.1606
2025-06-04 14:42:19.339816,42,-687.7,-0.0217,-0.028,1.153
2025-06-04 14:42:19.439816,42,-556.6,-0.017,-0.029,1.1633
2025-06-04 14:42:19.539816,42,-425.5,-0.0251,-0.0283,1.1625
2025-06-04 14:42:19.646894,45,-294.4,-0.0244,-0.0329,1.1623
2025-06-04 14:42:19.746894,45,-818.7,-0.0192,-0.0302,1.1582
2025-06-04 14:42:19.846894,45,-1080.9,-0.0224,-0.0263,1.1601
2025-06-04 14:42:19.918266,48,-687.7,-0.0207,-0.0285,1.1625
2025-06-04 14:42:20.018266,48,-687.7,-0.0256,-0.0285,1.1618
2025-06-04 14:42:20.118266,48,-556.6,-0.0285,-0.0332,1.164
2025-06-04 14:42:20.564152,54,-687.7,-0.0229,-0.0297,1.1652
2025-06-04 14:42:20.664152,54,-294.4,-0.0187,-0.03,1.1577
2025-06-04 14:42:20.764152,54,-294.4,-0.0253,-0.0268,1.1589
2025-06-04 14:42:21.151549,60,-163.4,-0.0224,-0.029,1.1628
2025-06-04 14:42:21.251549,60,-425.5,-0.0219,-0.0275,1.1652
2025-06-04 14:42:21.351549,60,-294.4,-0.0236,-0.0339,1.1621
2025-06-04 14:42:21.220665,61,-425.5,-0.0219,-0.0275,1.1652
2025-06-04 14:42:21.320665,61,-294.4,-0.0236,-0.0339,1.1621
2025-06-04 14:42:21.420665,61,-294.4,-0.0224,-0.029,1.1594
2025-06-04 14:42:21.402384,63,-294.4,-0.0224,-0.029,1.1594
2025-06-04 14:42:21.502384,63,-425.5,-0.0202,-0.0268,1.1557
2025-06-04 14:42:21.602384,63,-425.5,-0.0256,-0.0261,1.1582
2025-06-04 14:42:22.466880,73,-556.6,-0.0197,-0.0258,1.1633
2025-06-04 14:42:22.566880,73,-425.5,-0.0212,-0.0295,1.164
2025-06-04 14:42:22.666880,73,-818.7,-0.0195,-0.0329,1.1572
2025-06-04 14:42:22.688439,75,-818.7,-0.0195,-0.0329,1.1572
2025-06-04 14:42:22.788439,75,-556.6,-0.0249,-0.0324,1.164
2025-06-04 14:42:22.888439,75,-425.5,-0.0222,-0.0292,1.1655
2025-06-04 14:42:26.513301,113,-687.7,-0.0192,-0.0295,1.1665
2025-06-04 14:42:26.613301,113,-687.7,-0.0202,-0.0273,1.1599
2025-06-04 14:42:26.713301,113,-425.5,-0.0229,-0.0288,1.1628
2025-06-04 14:42:26.854705,117,-294.4,-0.0197,-0.0305,1.1657
2025-06-04 14:42:26.954705,117,-425.5,-0.0244,-0.0319,1.1628
2025-06-04 14:42:27.054705,117,-294.4,-0.0219,-0.0292,1.1596
2025-06-04 14:42:27.493114,123,-818.7,-0.0192,-0.0278,1.1611
2025-06-04 14:42:27.593114,123,-687.7,-0.0256,-0.0275,1.1669
2025-06-04 14:42:27.693114,123,-818.7,-0.0246,-0.0292,1.1625
2025-06-04 14:42:29.820628,146,-556.6,-0.0222,-0.0324,1.1606
2025-06-04 14:42:29.920628,146,-687.7,-0.0231,-0.0295,1.1611
2025-06-04 14:42:30.020628,146,-425.5,-0.0234,-0.0288,1.1643
2025-06-04 14:42:30.202513,151,-425.5,-0.0227,-0.029,1.1684
2025-06-04 14:42:30.302513,151,-425.5,-0.0214,-0.031,1.1635
2025-06-04 14:42:30.402513,151,-425.5,-0.0219,-0.029,1.1582
2025-06-04 14:42:31.393682,162,-687.7,-0.0224,-0.027,1.1594
2025-06-04 14:42:31.493682,162,-425.5,-0.0207,-0.0314,1.1589
2025-06-04 14:42:31.593682,162,-294.4,-0.0214,-0.0266,1.1594
2025-06-04 14:42:31.947936,168,-425.5,-0.02,-0.0297,1.1623
2025-06-04 14:42:32.047936,168,-818.7,-0.0249,-0.029,1.1672
2025-06-04 14:42:32.147936,168,-687.7,-0.0227,-0.0268,1.1574
2025-06-04 14:42:32.002420,169,-818.7,-0.0249,-0.029,1.1672
2025-06-04 14:42:32.102420,169,-687.7,-0.0227,-0.0268,1.1574
2025-06-04 14:42:32.202420,169,-556.6,-0.019,-0.0307,1.1567
2025-06-04 14:42:32.503964,173,-556.6,-0.0249,-0.0278,1.1608
2025-06-04 14:42:32.603964,173,-556.6,-0.0246,-0.0285,1.1608
2025-06-04 14:42:32.703964,173,-163.4,-0.0231,-0.0322,1.1584
2025-06-04 14:42:32.802581,177,-425.5,-0.0222,-0.0292,1.1608
2025-06-04 14:42:32.902581,177,-687.7,-0.0224,-0.0302,1.1667
2025-06-04 14:42:33.002581,177,-949.8,-0.0253,-0.0288,1.1645
2025-06-04 14:42:34.188353,190,-163.4,-0.0256,-0.03,1.1594
2025-06-04 14:42:34.288353,190,-163.4,-0.0224,-0.031,1.1572
2025-06-04 14:42:34.388353,190,-294.4,-0.0222,-0.03,1.1589
2025-06-04 14:42:34.893451,197,-687.7,-0.0224,-0.0305,1.1586
2025-06-04 14:42:34.993451,197,-294.4,-0.019,-0.0292,1.1613
2025-06-04 14:42:35.093451,197,-294.4,-0.0244,-0.0295,1.1606
2025-06-04 14:42:35.853871,207,-294.4,-0.0197,-0.0283,1.1616
2025-06-04 14:42:35.953871,207,-425.5,-0.0209,-0.03,1.1594
2025-06-04 14:42:36.053871,207,-425.5,-0.0205,-0.0302,1.1606
2025-06-04 14:42:36.455785,213,-294.4,-0.0195,-0.028,1.1635
2025-06-04 14:42:36.555785,213,-32.3,-0.0202,-0.0251,1.1594
2025-06-04 14:42:36.655785,213,-163.4,-0.0256,-0.0297,1.1574
2025-06-04 14:42:38.850971,237,-556.6,-0.0244,-0.0312,1.1667
2025-06-04 14:42:38.950971,237,-818.7,-0.0197,-0.0283,1.1569
2025-06-04 14:42:39.050971,237,-687.7,-0.0222,-0.0329,1.1616
2025-06-04 14:42:39.447804,243,-294.4,-0.0239,-0.0346,1.156
2025-06-04 14:42:39.547804,243,-556.6,-0.0219,-0.0297,1.1628
2025-06-04 14:42:39.647804,243,-556.6,-0.0241,-0.028,1.1586
2025-06-04 14:42:40.300406,251,-163.4,-0.0249,-0.0285,1.1721
2025-06-04 14:42:40.400406,251,-163.4,-0.0251,-0.031,1.1599
2025-06-04 14:42:40.500406,251,-163.4,-0.0217,-0.0283,1.1545
2025-06-04 14:42:40.647150,255,-294.4,-0.0241,-0.03,1.1613
2025-06-04 14:42:40.747150,255,-687.7,-0.0244,-0.0305,1.1604
2025-06-04 14:42:40.847150,255,-425.5,-0.0239,-0.031,1.1567
2025-06-04 14:42:41.202367,5,-425.5,-0.018,-0.027,1.1657
2025-06-04 14:42:41.302367,5,-556.6,-0.0258,-0.0278,1.1662
2025-06-04 14:42:41.402367,5,-556.6,-0.0263,-0.0285,1.1633
2025-06-04 14:42:42.402026,16,-556.6,-0.0234,-0.0327,1.1625
2025-06-04 14:42:42.502026,16,-425.5,-0.0229,-0.0253,1.1611
2025-06-04 14:42:42.602026,16,-556.6,-0.0219,-0.0268,1.1645
2025-06-04 14:42:42.422807,17,-425.5,-0.0229,-0.0253,1.1611
2025-06-04 14:42:42.522807,17,-556.6,-0.0219,-0.0268,1.1645
2025-06-04 14:42:42.622807,17,-425.5,-0.0234,-0.0273,1.1608
2025-06-04 14:42:42.713662,19,-425.5,-0.0234,-0.0273,1.1608
2025-06-04 14:42:42.813662,19,-425.5,-0.0224,-0.0268,1.1628
2025-06-04 14:42:42.913662,19,-425.5,-0.0256,-0.03,1.1596
2025-06-04 14:42:43.031383,23,-425.5,-0.0229,-0.0327,1.1621
2025-06-04 14:42:43.131383,23,-556.6,-0.0197,-0.0275,1.1623
2025-06-04 14:42:43.231383,23,-556.6,-0.0217,-0.0332,1.1618
2025-06-04 14:42:43.941395,32,-425.5,-0.0222,-0.0327,1.1608
2025-06-04 14:42:44.041395,32,-687.7,-0.0278,-0.029,1.1606
2025-06-04 14:42:44.141395,32,-425.5,-0.0246,-0.031,1.1608
2025-06-04 14:42:44.816704,41,-1080.9,-0.0222,-0.0266,1.1574
2025-06-04 14:42:44.916704,41,-556.6,-0.0214,-0.0295,1.164
2025-06-04 14:42:45.016704,41,98.8,-0.0209,-0.0312,1.1623
2025-06-04 14:42:45.202353,45,-425.5,-0.028,-0.0258,1.1611
2025-06-04 14:42:45.302353,45,-687.7,-0.0209,-0.0302,1.1601
2025-06-04 14:42:45.402353,45,-949.8,-0.0224,-0.0307,1.1574
2025-06-04 14:42:45.742974,50,-687.7,-0.0231,-0.0302,1.1564
2025-06-04 14:42:45.842974,50,-294.4,-0.0219,-0.0329,1.1667
2025-06-04 14:42:45.942974,50,-32.3,-0.0224,-0.0317,1.1652
2025-06-04 14:42:46.018839,53,-425.5,-0.0261,-0.0314,1.1574
2025-06-04 14:42:46.118839,53,-425.5,-0.0222,-0.0307,1.1621
2025-06-04 14:42:46.218839,53,-294.4,-0.0229,-0.0295,1.1679
2025-06-04 14:42:46.351592,56,-425.5,-0.0209,-0.0302,1.163
2025-06-04 14:42:46.451592,56,-294.4,-0.0227,-0.0278,1.1555
2025-06-04 14:42:46.551592,56,-294.4,-0.0217,-0.0302,1.166
2025-06-04 14:42:46.601268,59,-294.4,-0.0209,-0.0261,1.1596
2025-06-04 14:42:46.701268,59,-294.4,-0.017,-0.0322,1.1601
2025-06-04 14:42:46.801268,59,-425.5,-0.018,-0.0307,1.1586
2025-06-04 14:42:47.386907,66,-556.6,-0.0263,-0.0324,1.1608
2025-06-04 14:42:47.486907,66,-556.6,-0.0234,-0.0297,1.1518
2025-06-04 14:42:47.586907,66,-687.7,-0.0222,-0.0275,1.1564
2025-06-04 14:42:48.103793,71,-163.4,-0.0229,-0.0332,1.163
2025-06-04 14:42:48.203793,71,-556.6,-0.0222,-0.029,1.1638
2025-06-04 14:42:48.303793,71,-949.8,-0.0231,-0.029,1.1625
2025-06-04 14:42:48.104378,74,-949.8,-0.0227,-0.029,1.1601
2025-06-04 14:42:48.204378,74,-818.7,-0.0207,-0.0312,1.1582
2025-06-04 14:42:48.304378,74,-818.7,-0.0241,-0.0307,1.1633
2025-06-04 14:42:48.553341,78,-294.4,-0.0231,-0.0305,1.1601
2025-06-04 14:42:48.653341,78,-687.7,-0.0241,-0.027,1.1606
2025-06-04 14:42:48.753341,78,-556.6,-0.0212,-0.0241,1.1667
2025-06-04 14:42:48.994036,81,-687.7,-0.0192,-0.0305,1.1618
2025-06-04 14:42:49.094036,81,-425.5,-0.0227,-0.0319,1.1618
2025-06-04 14:42:49.194036,81,-425.5,-0.0249,-0.0285,1.1577
2025-06-04 14:42:49.652969,89,-556.6,-0.0222,-0.0339,1.1608
2025-06-04 14:42:49.752969,89,-687.7,-0.0158,-0.0285,1.1542
2025-06-04 14:42:49.852969,89,-818.7,-0.0209,-0.0261,1.1542
2025-06-04 14:42:49.964537,92,-556.6,-0.0185,-0.031,1.1606
2025-06-04 14:42:50.064537,92,-556.6,-0.0217,-0.0295,1.166
2025-06-04 14:42:50.164537,92,-687.7,-0.0219,-0.03,1.1645
2025-06-04 14:42:50.283679,95,-687.7,-0.0202,-0.0297,1.1674
2025-06-04 14:42:50.383679,95,-818.7,-0.0273,-0.0283,1.1618
2025-06-04 14:42:50.483679,95,-949.8,-0.0227,-0.0261,1.165
2025-06-04 14:42:50.803586,101,-425.5,-0.0266,-0.029,1.1611
2025-06-04 14:42:50.903586,101,-556.6,-0.0227,-0.0283,1.1638
2025-06-04 14:42:51.003586,101,-556.6,-0.0217,-0.0305,1.1584
2025-06-04 14:42:51.188210,104,-818.7,-0.0229,-0.0319,1.1608
2025-06-04 14:42:51.288210,104,-687.7,-0.0207,-0.0317,1.163
2025-06-04 14:42:51.388210,104,-425.5,-0.0246,-0.0312,1.1662
2025-06-04 14:42:51.382165,106,-425.5,-0.0246,-0.0312,1.1662
2025-06-04 14:42:51.482165,106,-425.5,-0.0217,-0.0278,1.1589
2025-06-04 14:42:51.582165,106,-556.6,-0.0229,-0.0302,1.1582
2025-06-04 14:42:51.420675,107,-425.5,-0.0217,-0.0278,1.1589
2025-06-04 14:42:51.520675,107,-556.6,-0.0229,-0.0302,1.1582
2025-06-04 14:42:51.620675,107,-425.5,-0.0219,-0.0317,1.1545
2025-06-04 14:42:52.347233,116,-163.4,-0.02,-0.0322,1.1591
2025-06-04 14:42:52.447233,116,-294.4,-0.0192,-0.0297,1.1606
2025-06-04 14:42:52.547233,116,-294.4,-0.0195,-0.0302,1.156
2025-06-04 14:42:53.581782,128,-556.6,-0.0231,-0.0302,1.1601
2025-06-04 14:42:53.681782,128,-687.7,-0.0236,-0.0278,1.1579
2025-06-04 14:42:53.781782,128,-687.7,-0.0231,-0.03,1.1689
2025-06-04 14:42:53.848927,131,-294.4,-0.0246,-0.03,1.1616
2025-06-04 14:42:53.948927,131,-425.5,-0.0217,-0.0305,1.1684
2025-06-04 14:42:54.048927,131,-556.6,-0.0222,-0.028,1.1599
2025-06-04 14:42:55.344671,146,-425.5,-0.0214,-0.0322,1.1662
2025-06-04 14:42:55.444671,146,-163.4,-0.0239,-0.0285,1.1591
2025-06-04 14:42:55.544671,146,-163.4,-0.0249,-0.0278,1.1611
2025-06-04 14:42:55.712040,150,-163.4,-0.0266,-0.0285,1.1643
2025-06-04 14:42:55.812040,150,-294.4,-0.0229,-0.0295,1.1601
2025-06-04 14:42:55.912040,150,-163.4,-0.0222,-0.0314,1.1567
2025-06-04 14:42:56.699725,159,-556.6,-0.0197,-0.028,1.1577
2025-06-04 14:42:56.799725,159,-294.4,-0.0256,-0.0324,1.1616
2025-06-04 14:42:56.899725,159,-294.4,-0.0249,-0.0278,1.1623
2025-06-04 14:42:56.797524,160,-294.4,-0.0256,-0.0324,1.1616
2025-06-04 14:42:56.897524,160,-294.4,-0.0249,-0.0278,1.1623
2025-06-04 14:42:56.997524,160,-294.4,-0.0246,-0.0314,1.1564
2025-06-04 14:42:56.894748,161,-294.4,-0.0249,-0.0278,1.1623
2025-06-04 14:42:56.994748,161,-294.4,-0.0246,-0.0314,1.1564
2025-06-04 14:42:57.094748,161,-163.4,-0.019,-0.0324,1.1567
2025-06-04 14:42:57.203267,165,-32.3,-0.0256,-0.0307,1.1591
2025-06-04 14:42:57.303267,165,-163.4,-0.0273,-0.0312,1.1618
2025-06-04 14:42:57.403267,165,-687.7,-0.0251,-0.0307,1.1589
2025-06-04 14:42:57.489182,167,-687.7,-0.0251,-0.0307,1.1589
2025-06-04 14:42:57.589182,167,-687.7,-0.0253,-0.0292,1.1611
2025-06-04 14:42:57.689182,167,-556.6,-0.0224,-0.0305,1.1652
2025-06-04 14:42:58.300343,176,-425.5,-0.0224,-0.031,1.165
2025-06-04 14:42:58.400343,176,-294.4,-0.0214,-0.0253,1.156
2025-06-04 14:42:58.500343,176,-425.5,-0.0178,-0.0302,1.1623
2025-06-04 14:42:58.915974,182,-556.6,-0.0207,-0.0273,1.1608
2025-06-04 14:42:59.015974,182,-556.6,-0.0212,-0.027,1.1601
2025-06-04 14:42:59.115974,182,-425.5,-0.0185,-0.0266,1.1623
2025-06-04 14:42:59.080886,183,-556.6,-0.0212,-0.027,1.1601
2025-06-04 14:42:59.180886,183,-425.5,-0.0185,-0.0266,1.1623
2025-06-04 14:42:59.280886,183,-687.7,-0.0229,-0.0317,1.1545
2025-06-04 14:42:59.841111,191,-294.4,-0.0229,-0.027,1.1616
2025-06-04 14:42:59.941111,191,-556.6,-0.0241,-0.0283,1.1586
2025-06-04 14:43:00.041111,191,-425.5,-0.0249,-0.0297,1.1606
2025-06-04 14:43:00.413075,197,-556.6,-0.0209,-0.0302,1.166
2025-06-04 14:43:00.513075,197,-294.4,-0.019,-0.031,1.1567
2025-06-04 14:43:00.613075,197,-294.4,-0.0209,-0.0266,1.1618
2025-06-04 14:43:01.488884,207,-687.7,-0.0214,-0.0285,1.1547
2025-06-04 14:43:01.588884,207,-818.7,-0.0212,-0.0295,1.1586
2025-06-04 14:43:01.688884,207,-687.7,-0.0209,-0.0327,1.1574
2025-06-04 14:43:01.501203,208,-818.7,-0.0212,-0.0295,1.1586
2025-06-04 14:43:01.601203,208,-687.7,-0.0209,-0.0327,1.1574
2025-06-04 14:43:01.701203,208,-818.7,-0.019,-0.0261,1.1574
2025-06-04 14:43:02.502789,218,-556.6,-0.0192,-0.03,1.1574
2025-06-04 14:43:02.602789,218,-687.7,-0.019,-0.0275,1.1579
2025-06-04 14:43:02.702789,218,-425.5,-0.0222,-0.0275,1.1613
2025-06-04 14:43:03.462429,227,-1080.9,-0.0246,-0.031,1.1616
2025-06-04 14:43:03.562429,227,-1080.9,-0.0224,-0.029,1.1604
2025-06-04 14:43:03.662429,227,-949.8,-0.0219,-0.0275,1.1564
2025-06-04 14:43:03.714800,230,-818.7,-0.0209,-0.031,1.1604
2025-06-04 14:43:03.814800,230,-163.4,-0.0239,-0.031,1.1586
2025-06-04 14:43:03.914800,230,-32.3,-0.0227,-0.0283,1.1628
2025-06-04 14:43:04.302964,236,-32.3,-0.0244,-0.0285,1.1606
2025-06-04 14:43:04.402964,236,-32.3,-0.0234,-0.029,1.1618
2025-06-04 14:43:04.502964,236,-294.4,-0.0185,-0.0336,1.1618
2025-06-04 14:43:04.601709,239,-163.4,-0.0187,-0.03,1.1552
2025-06-04 14:43:04.701709,239,-294.4,-0.0229,-0.029,1.1638
2025-06-04 14:43:04.801709,239,-818.7,-0.0246,-0.0307,1.1577
2025-06-04 14:43:04.902764,242,-818.7,-0.0227,-0.03,1.1608
2025-06-04 14:43:05.002764,242,-687.7,-0.0251,-0.0319,1.1574
2025-06-04 14:43:05.102764,242,-556.6,-0.0241,-0.0329,1.1584
2025-06-04 14:43:05.183657,243,-687.7,-0.0251,-0.0319,1.1574
2025-06-04 14:43:05.283657,243,-556.6,-0.0241,-0.0329,1.1584
2025-06-04 14:43:05.383657,243,-556.6,-0.0224,-0.0319,1.1606
2025-06-04 14:43:05.344409,245,-556.6,-0.0224,-0.0319,1.1606
2025-06-04 14:43:05.444409,245,-687.7,-0.0246,-0.027,1.1618
2025-06-04 14:43:05.544409,245,-556.6,-0.0205,-0.028,1.1613
2025-06-04 14:43:05.591254,248,-556.6,-0.0268,-0.0283,1.1591
2025-06-04 14:43:05.691254,248,-556.6,-0.0217,-0.0312,1.1572
2025-06-04 14:43:05.791254,248,-818.7,-0.0222,-0.0292,1.1611
2025-06-04 14:43:05.601515,249,-556.6,-0.0217,-0.0312,1.1572
2025-06-04 14:43:05.701515,249,-818.7,-0.0222,-0.0292,1.1611
2025-06-04 14:43:05.801515,249,-949.8,-0.0217,-0.0314,1.1538
2025-06-04 14:43:06.144863,254,-687.7,-0.0241,-0.0354,1.1611
2025-06-04 14:43:06.244863,254,-687.7,-0.0229,-0.028,1.1613
2025-06-04 14:43:06.344863,254,-949.8,-0.0256,-0.0295,1.1638
2025-06-04 14:43:06.732979,4,-949.8,-0.0278,-0.0283,1.1601
2025-06-04 14:43:06.832979,4,-949.8,-0.02,-0.03,1.1613
2025-06-04 14:43:06.932979,4,-949.8,-0.0234,-0.029,1.1604
2025-06-04 14:43:07.301466,10,-687.7,-0.0251,-0.0244,1.1618
2025-06-04 14:43:07.401466,10,-1080.9,-0.0202,-0.0305,1.1652
2025-06-04 14:43:07.501466,10,-949.8,-0.0244,-0.0324,1.1613
2025-06-04 14:43:08.563026,22,-425.5,-0.0219,-0.0295,1.1586
2025-06-04 14:43:08.663026,22,-556.6,-0.0209,-0.029,1.1611
2025-06-04 14:43:08.763026,22,-687.7,-0.0224,-0.03,1.1564
2025-06-04 14:43:08.791472,23,-556.6,-0.0209,-0.029,1.1611
2025-06-04 14:43:08.891472,23,-687.7,-0.0224,-0.03,1.1564
2025-06-04 14:43:08.991472,23,-687.7,-0.0234,-0.0302,1.1596
2025-06-04 14:43:08.800454,25,-687.7,-0.0234,-0.0302,1.1596
2025-06-04 14:43:08.900454,25,-687.7,-0.0244,-0.0256,1.1591
2025-06-04 14:43:09.000454,25,-687.7,-0.0207,-0.0268,1.1591
2025-06-04 14:43:09.146148,28,-556.6,-0.0209,-0.0268,1.1618
2025-06-04 14:43:09.246148,28,-425.5,-0.0195,-0.0295,1.1584
2025-06-04 14:43:09.346148,28,-687.7,-0.0227,-0.0305,1.1638
2025-06-04 14:43:09.447663,31,-687.7,-0.0209,-0.031,1.1589
2025-06-04 14:43:09.547663,31,-556.6,-0.0222,-0.0305,1.1557
2025-06-04 14:43:09.647663,31,-556.6,-0.0217,-0.0302,1.1547
2025-06-04 14:43:09.700376,34,-687.7,-0.0158,-0.0295,1.1552
2025-06-04 14:43:09.800376,34,-687.7,-0.0241,-0.0288,1.165
2025-06-04 14:43:09.900376,34,-556.6,-0.0234,-0.0322,1.1655
2025-06-04 14:43:10.060713,37,-294.4,-0.0205,-0.0266,1.1623
2025-06-04 14:43:10.160713,37,-294.4,-0.0209,-0.0314,1.1643
2025-06-04 14:43:10.260713,37,-687.7,-0.0219,-0.0256,1.1594
2025-06-04 14:43:10.291721,38,-294.4,-0.0209,-0.0314,1.1643
2025-06-04 14:43:10.391721,38,-687.7,-0.0219,-0.0256,1.1594
2025-06-04 14:43:10.491721,38,-687.7,-0.0253,-0.0288,1.1647
2025-06-04 14:43:10.913114,46,-294.4,-0.019,-0.0305,1.1586
2025-06-04 14:43:11.013114,46,-687.7,-0.0224,-0.0314,1.1604
2025-06-04 14:43:11.113114,46,-425.5,-0.0227,-0.029,1.1613
2025-06-04 14:43:11.268160,49,-163.4,-0.0239,-0.0307,1.1599
2025-06-04 14:43:11.368160,49,-425.5,-0.0241,-0.0307,1.1616
2025-06-04 14:43:11.468160,49,-425.5,-0.0217,-0.0312,1.1577
2025-06-04 14:43:11.487215,51,-425.5,-0.0217,-0.0312,1.1577
2025-06-04 14:43:11.587215,51,-425.5,-0.0231,-0.0285,1.1618
2025-06-04 14:43:11.687215,51,-556.6,-0.0222,-0.0275,1.1594
2025-06-04 14:43:11.564716,52,-425.5,-0.0231,-0.0285,1.1618
2025-06-04 14:43:11.664716,52,-556.6,-0.0222,-0.0275,1.1594
2025-06-04 14:43:11.764716,52,-818.7,-0.0205,-0.0239,1.1564
2025-06-04 14:43:12.248327,58,-818.7,-0.0244,-0.0307,1.1572
2025-06-04 14:43:12.348327,58,-556.6,-0.0183,-0.0322,1.1635
2025-06-04 14:43:12.448327,58,-687.7,-0.0234,-0.0285,1.1628
2025-06-04 14:43:13.301703,70,-818.7,-0.0244,-0.0324,1.1613
2025-06-04 14:43:13.401703,70,-818.7,-0.0205,-0.031,1.1564
2025-06-04 14:43:13.501703,70,-687.7,-0.018,-0.028,1.1552
2025-06-04 14:43:13.661767,73,-294.4,-0.0231,-0.0273,1.1584
2025-06-04 14:43:13.761767,73,-425.5,-0.0214,-0.0314,1.1596
2025-06-04 14:43:13.861767,73,-163.4,-0.0227,-0.029,1.1633
2025-06-04 14:43:14.188030,76,-163.4,-0.0209,-0.031,1.1643
2025-06-04 14:43:14.288030,76,-425.5,-0.0261,-0.0288,1.1633
2025-06-04 14:43:14.388030,76,-425.5,-0.0246,-0.0292,1.1613
2025-06-04 14:43:14.200075,78,-425.5,-0.0246,-0.0292,1.1613
2025-06-04 14:43:14.300075,78,-425.5,-0.0249,-0.0302,1.1606
2025-06-04 14:43:14.400075,78,-294.4,-0.0217,-0.028,1.163
2025-06-04 14:43:14.500376,81,-163.4,-0.0209,-0.029,1.1584
2025-06-04 14:43:14.600376,81,-556.6,-0.0236,-0.0322,1.1589
2025-06-04 14:43:14.700376,81,-818.7,-0.02,-0.0275,1.1621
2025-06-04 14:43:14.501277,82,-556.6,-0.0236,-0.0322,1.1589
2025-06-04 14:43:14.601277,82,-818.7,-0.02,-0.0275,1.1621
2025-06-04 14:43:14.701277,82,-425.5,-0.0163,-0.0244,1.1621
2025-06-04 14:43:15.096953,87,-556.6,-0.0258,-0.0288,1.1567
2025-06-04 14:43:15.196953,87,-687.7,-0.0251,-0.0253,1.153
2025-06-04 14:43:15.296953,87,-818.7,-0.0241,-0.0288,1.1584
2025-06-04 14:43:15.100283,88,-687.7,-0.0251,-0.0253,1.153
2025-06-04 14:43:15.200283,88,-818.7,-0.0241,-0.0288,1.1584
2025-06-04 14:43:15.300283,88,-949.8,-0.0219,-0.0305,1.1572
2025-06-04 14:43:15.401311,91,-556.6,-0.0234,-0.0312,1.1599
2025-06-04 14:43:15.501311,91,-294.4,-0.0197,-0.0302,1.1584
2025-06-04 14:43:15.601311,91,-294.4,-0.0178,-0.028,1.1611
2025-06-04 14:43:16.008029,96,-687.7,-0.0185,-0.03,1.1528
2025-06-04 14:43:16.108029,96,-687.7,-0.02,-0.0295,1.1606
2025-06-04 14:43:16.208029,96,-425.5,-0.0187,-0.0292,1.1687
2025-06-04 14:43:16.615661,103,-425.5,-0.0256,-0.0295,1.1579
2025-06-04 14:43:16.715661,103,-294.4,-0.027,-0.0341,1.1621
2025-06-04 14:43:16.815661,103,-425.5,-0.0224,-0.0266,1.163
2025-06-04 14:43:17.491282,111,-425.5,-0.0214,-0.0283,1.1616
2025-06-04 14:43:17.591282,111,-163.4,-0.0209,-0.0288,1.1616
2025-06-04 14:43:17.691282,111,-32.3,-0.0214,-0.03,1.1616
2025-06-04 14:43:17.502728,112,-163.4,-0.0209,-0.0288,1.1616
2025-06-04 14:43:17.602728,112,-32.3,-0.0214,-0.03,1.1616
2025-06-04 14:43:17.702728,112,-425.5,-0.0229,-0.0317,1.1584
2025-06-04 14:43:18.096837,117,-687.7,-0.0236,-0.0319,1.1635
2025-06-04 14:43:18.196837,117,-294.4,-0.0224,-0.0283,1.1657
2025-06-04 14:43:18.296837,117,-163.4,-0.0229,-0.0295,1.1608
2025-06-04 14:43:19.302565,130,-294.4,-0.0239,-0.031,1.1599
2025-06-04 14:43:19.402565,130,-425.5,-0.0244,-0.0312,1.1613
2025-06-04 14:43:19.502565,130,-818.7,-0.0217,-0.0329,1.1599
2025-06-04 14:43:19.957582,136,-32.3,-0.0219,-0.0275,1.1555
2025-06-04 14:43:20.057582,136,-294.4,-0.0234,-0.0283,1.1552
2025-06-04 14:43:20.157582,136,-556.6,-0.0234,-0.0307,1.1616
2025-06-04 14:43:20.186574,138,-556.6,-0.0234,-0.0307,1.1616
2025-06-04 14:43:20.286574,138,-425.5,-0.02,-0.0283,1.1591
2025-06-04 14:43:20.386574,138,-294.4,-0.0229,-0.0317,1.1677
2025-06-04 14:43:20.801769,145,-556.6,-0.018,-0.03,1.1616
2025-06-04 14:43:20.901769,145,-818.7,-0.0231,-0.0324,1.1621
2025-06-04 14:43:21.001769,145,-556.6,-0.0222,-0.0297,1.1647
2025-06-04 14:43:21.760374,154,-949.8,-0.0236,-0.0288,1.1608
2025-06-04 14:43:21.860374,154,-687.7,-0.0229,-0.0273,1.1643
2025-06-04 14:43:21.960374,154,-818.7,-0.0214,-0.0317,1.1604
2025-06-04 14:43:22.601359,163,-556.6,-0.0241,-0.0305,1.163
2025-06-04 14:43:22.701359,163,-556.6,-0.0256,-0.0273,1.1628
2025-06-04 14:43:22.801359,163,-425.5,-0.0239,-0.0273,1.1596
2025-06-04 14:43:24.986471,186,-163.4,-0.0234,-0.0312,1.1628
2025-06-04 14:43:25.086471,186,-425.5,-0.0231,-0.0285,1.164
2025-06-04 14:43:25.186471,186,-949.8,-0.0214,-0.0275,1.1613
2025-06-04 14:43:25.002406,187,-425.5,-0.0231,-0.0285,1.164
2025-06-04 14:43:25.102406,187,-949.8,-0.0214,-0.0275,1.1613
2025-06-04 14:43:25.202406,187,-818.7,-0.0212,-0.0275,1.1621
2025-06-04 14:43:25.891273,195,-556.6,-0.0224,-0.0273,1.1599
2025-06-04 14:43:25.991273,195,-425.5,-0.0263,-0.028,1.166
2025-06-04 14:43:26.091273,195,-949.8,-0.0246,-0.0307,1.1625
2025-06-04 14:43:25.948074,196,-425.5,-0.0263,-0.028,1.166
2025-06-04 14:43:26.048074,196,-949.8,-0.0246,-0.0307,1.1625
2025-06-04 14:43:26.148074,196,-949.8,-0.0239,-0.0292,1.1606
2025-06-04 14:43:26.541877,202,-556.6,-0.0241,-0.0297,1.1604
2025-06-04 14:43:26.641877,202,-556.6,-0.0217,-0.0297,1.1689
2025-06-04 14:43:26.741877,202,-556.6,-0.0249,-0.029,1.1594
2025-06-04 14:43:27.387369,210,-425.5,-0.0231,-0.0307,1.1611
2025-06-04 14:43:27.487369,210,-425.5,-0.02,-0.0292,1.1569
2025-06-04 14:43:27.587369,210,-556.6,-0.0229,-0.0336,1.1562
2025-06-04 14:43:27.446661,211,-425.5,-0.02,-0.0292,1.1569
2025-06-04 14:43:27.546661,211,-556.6,-0.0229,-0.0336,1.1562
2025-06-04 14:43:27.646661,211,-425.5,-0.0207,-0.0295,1.1604
2025-06-04 14:43:28.287610,219,-294.4,-0.0187,-0.0305,1.1589
2025-06-04 14:43:28.387610,219,98.8,-0.0244,-0.0319,1.1611
2025-06-04 14:43:28.487610,219,-163.4,-0.0212,-0.029,1.1577
2025-06-04 14:43:28.444147,221,-163.4,-0.0212,-0.029,1.1577
2025-06-04 14:43:28.544147,221,-425.5,-0.0227,-0.0292,1.164
2025-06-04 14:43:28.644147,221,-163.4,-0.0197,-0.0307,1.1601
2025-06-04 14:43:29.248920,229,-556.6,-0.0285,-0.0297,1.164
2025-06-04 14:43:29.348920,229,-556.6,-0.0222,-0.0273,1.1645
2025-06-04 14:43:29.448920,229,-294.4,-0.0214,-0.0253,1.1564
2025-06-04 14:43:29.790465,233,-294.4,-0.0207,-0.0312,1.1574
2025-06-04 14:43:29.890465,233,-32.3,-0.019,-0.0297,1.1655
2025-06-04 14:43:29.990465,233,98.8,-0.0239,-0.0278,1.1557
2025-06-04 14:43:30.487608,241,-556.6,-0.0249,-0.03,1.1606
2025-06-04 14:43:30.587608,241,-163.4,-0.0278,-0.0297,1.1604
2025-06-04 14:43:30.687608,241,-294.4,-0.0234,-0.0288,1.1652
2025-06-04 14:43:30.713566,244,-294.4,-0.0224,-0.0278,1.1577
2025-06-04 14:43:30.813566,244,-294.4,-0.0261,-0.029,1.1625
2025-06-04 14:43:30.913566,244,-949.8,-0.0202,-0.0339,1.1677
2025-06-04 14:43:31.302938,250,-949.8,-0.0219,-0.0297,1.1591
2025-06-04 14:43:31.402938,250,-818.7,-0.0234,-0.029,1.1567
2025-06-04 14:43:31.502938,250,-687.7,-0.0231,-0.0305,1.1638
2025-06-04 14:43:32.253935,3,-949.8,-0.0231,-0.0314,1.1535
2025-06-04 14:43:32.353935,3,-949.8,-0.0236,-0.0278,1.1557
2025-06-04 14:43:32.453935,3,-556.6,-0.0212,-0.027,1.1599
2025-06-04 14:43:32.501670,6,-425.5,-0.0217,-0.028,1.1557
2025-06-04 14:43:32.601670,6,-949.8,-0.0244,-0.0288,1.1633
2025-06-04 14:43:32.701670,6,-818.7,-0.0246,-0.0256,1.1584
2025-06-04 14:43:33.184247,12,-556.6,-0.0209,-0.031,1.1606
2025-06-04 14:43:33.284247,12,-818.7,-0.0236,-0.0266,1.1623
2025-06-04 14:43:33.384247,12,-294.4,-0.0229,-0.0285,1.1564
2025-06-04 14:43:34.101059,22,-425.5,-0.0207,-0.0278,1.1582
2025-06-04 14:43:34.201059,22,-294.4,-0.0192,-0.0256,1.1613
2025-06-04 14:43:34.301059,22,-294.4,-0.0239,-0.03,1.1579
2025-06-04 14:43:35.496707,33,-949.8,-0.0231,-0.0312,1.1594
2025-06-04 14:43:35.596707,33,-818.7,-0.0207,-0.0302,1.1635
2025-06-04 14:43:35.696707,33,-425.5,-0.0241,-0.0285,1.1572
2025-06-04 14:43:35.548113,36,-687.7,-0.0234,-0.028,1.1591
2025-06-04 14:43:35.648113,36,-1080.9,-0.0207,-0.0307,1.1579
2025-06-04 14:43:35.748113,36,-687.7,-0.0222,-0.0324,1.1611
2025-06-04 14:43:36.088459,41,-163.4,-0.0231,-0.0288,1.1645
2025-06-04 14:43:36.188459,41,-294.4,-0.0219,-0.0268,1.1572
2025-06-04 14:43:36.288459,41,-294.4,-0.0236,-0.0327,1.1569
2025-06-04 14:43:38.491796,65,-687.7,-0.0214,-0.0324,1.1625
2025-06-04 14:43:38.591796,65,-556.6,-0.0219,-0.0327,1.1662
2025-06-04 14:43:38.691796,65,-163.4,-0.0231,-0.0266,1.1635
2025-06-04 14:43:38.879075,69,-425.5,-0.0227,-0.0319,1.1621
2025-06-04 14:43:38.979075,69,-294.4,-0.0183,-0.0334,1.1579
2025-06-04 14:43:39.079075,69,-163.4,-0.0268,-0.031,1.1618
2025-06-04 14:43:39.144646,72,-294.4,-0.0258,-0.0263,1.1562
2025-06-04 14:43:39.244646,72,-687.7,-0.0197,-0.0285,1.1586
2025-06-04 14:43:39.344646,72,-425.5,-0.0266,-0.0327,1.1674
2025-06-04 14:43:40.646057,87,-818.7,-0.027,-0.0305,1.1618
2025-06-04 14:43:40.746057,87,-818.7,-0.0241,-0.029,1.1611
2025-06-04 14:43:40.846057,87,-687.7,-0.0288,-0.0295,1.1584
2025-06-04 14:43:40.965420,90,-425.5,-0.0251,-0.0288,1.1599
2025-06-04 14:43:41.065420,90,-163.4,-0.0224,-0.0295,1.1582
2025-06-04 14:43:41.165420,90,-425.5,-0.0151,-0.0275,1.1562
2025-06-04 14:43:41.194771,92,-425.5,-0.0151,-0.0275,1.1562
2025-06-04 14:43:41.294771,92,-818.7,-0.0246,-0.0295,1.1594
2025-06-04 14:43:41.394771,92,-949.8,-0.0222,-0.0283,1.1674
2025-06-04 14:43:42.081747,101,-294.4,-0.0222,-0.0295,1.1613
2025-06-04 14:43:42.181747,101,-294.4,-0.0224,-0.0275,1.1616
2025-06-04 14:43:42.281747,101,-425.5,-0.0231,-0.0317,1.1604
2025-06-04 14:43:42.385069,104,-425.5,-0.0222,-0.0319,1.1633
2025-06-04 14:43:42.485069,104,-687.7,-0.0224,-0.0258,1.1606
2025-06-04 14:43:42.585069,104,-818.7,-0.0207,-0.0263,1.1628
2025-06-04 14:43:43.613088,117,-556.6,-0.0251,-0.0297,1.163
2025-06-04 14:43:43.713088,117,-294.4,-0.0197,-0.0314,1.1625
2025-06-04 14:43:43.813088,117,-425.5,-0.0258,-0.0305,1.1555
2025-06-04 14:43:44.201203,123,-32.3,-0.0236,-0.031,1.1574
2025-06-04 14:43:44.301203,123,-163.4,-0.0261,-0.029,1.1599
2025-06-04 14:43:44.401203,123,-163.4,-0.0234,-0.03,1.1625
2025-06-04 14:43:44.382726,124,-163.4,-0.0261,-0.029,1.1599
2025-06-04 14:43:44.482726,124,-163.4,-0.0234,-0.03,1.1625
2025-06-04 14:43:44.582726,124,-294.4,-0.0249,-0.0312,1.164
2025-06-04 14:43:46.365898,144,-556.6,-0.0202,-0.0305,1.1652
2025-06-04 14:43:46.465898,144,-425.5,-0.0239,-0.0283,1.1596
2025-06-04 14:43:46.565898,144,-294.4,-0.0227,-0.0295,1.1601
2025-06-04 14:43:46.593784,146,-294.4,-0.0227,-0.0295,1.1601
2025-06-04 14:43:46.693784,146,-425.5,-0.0217,-0.03,1.1633
2025-06-04 14:43:46.793784,146,-425.5,-0.0217,-0.0295,1.1669
2025-06-04 14:43:47.247070,153,-163.4,-0.0239,-0.0305,1.1635
2025-06-04 14:43:47.347070,153,-32.3,-0.0241,-0.0292,1.1628
2025-06-04 14:43:47.447070,153,-32.3,-0.0239,-0.0297,1.1623
2025-06-04 14:43:48.101147,162,-294.4,-0.0205,-0.0327,1.1633
2025-06-04 14:43:48.201147,162,-556.6,-0.0224,-0.0278,1.1628
2025-06-04 14:43:48.301147,162,-949.8,-0.0207,-0.0356,1.1557
2025-06-04 14:43:48.446534,165,-949.8,-0.0207,-0.0266,1.1569
2025-06-04 14:43:48.546534,165,-556.6,-0.0236,-0.0302,1.1687
2025-06-04 14:43:48.646534,165,-425.5,-0.0244,-0.0278,1.1599
2025-06-04 14:43:49.005532,170,-425.5,-0.0258,-0.031,1.1601
2025-06-04 14:43:49.105532,170,-163.4,-0.0212,-0.0351,1.1601
2025-06-04 14:43:49.205532,170,-163.4,-0.0197,-0.0322,1.163
2025-06-04 14:43:49.599881,177,-556.6,-0.0231,-0.0295,1.1633
2025-06-04 14:43:49.699881,177,-556.6,-0.0207,-0.0285,1.1628
2025-06-04 14:43:49.799881,177,-556.6,-0.0275,-0.0329,1.1584
2025-06-04 14:43:49.940621,180,-556.6,-0.0231,-0.0275,1.1562
2025-06-04 14:43:50.040621,180,-425.5,-0.0224,-0.0319,1.1567
2025-06-04 14:43:50.140621,180,-294.4,-0.0207,-0.028,1.1645
2025-06-04 14:43:50.375485,182,-294.4,-0.0207,-0.028,1.1645
2025-06-04 14:43:50.475485,182,-556.6,-0.0214,-0.0241,1.1623
2025-06-04 14:43:50.575485,182,-556.6,-0.0236,-0.0275,1.1579
2025-06-04 14:43:50.388331,184,-556.6,-0.0236,-0.0275,1.1579
2025-06-04 14:43:50.488331,184,-163.4,-0.0219,-0.0278,1.1589
2025-06-04 14:43:50.588331,184,-163.4,-0.0253,-0.0256,1.1618
2025-06-04 14:43:50.484559,185,-163.4,-0.0219,-0.0278,1.1589
2025-06-04 14:43:50.584559,185,-163.4,-0.0253,-0.0256,1.1618
2025-06-04 14:43:50.684559,185,-294.4,-0.0236,-0.0314,1.1633
2025-06-04 14:43:51.985752,200,-687.7,-0.0256,-0.0312,1.163
2025-06-04 14:43:52.085752,200,-687.7,-0.0192,-0.0295,1.1564
2025-06-04 14:43:52.185752,200,-294.4,-0.0227,-0.0288,1.1628
2025-06-04 14:43:52.046172,201,-687.7,-0.0192,-0.0295,1.1564
2025-06-04 14:43:52.146172,201,-294.4,-0.0227,-0.0288,1.1628
2025-06-04 14:43:52.246172,201,-32.3,-0.0261,-0.027,1.1638
2025-06-04 14:43:52.903237,210,-425.5,-0.0241,-0.0341,1.1606
2025-06-04 14:43:53.003237,210,-687.7,-0.0227,-0.028,1.1613
2025-06-04 14:43:53.103237,210,-687.7,-0.0239,-0.0283,1.1674
2025-06-04 14:43:54.139363,222,-163.4,-0.0234,-0.0319,1.1596
2025-06-04 14:43:54.239363,222,-32.3,-0.0236,-0.0256,1.1569
2025-06-04 14:43:54.339363,222,-294.4,-0.0214,-0.028,1.1652
2025-06-04 14:43:54.441594,225,-425.5,-0.0251,-0.03,1.1623
2025-06-04 14:43:54.541594,225,-32.3,-0.027,-0.0305,1.1613
2025-06-04 14:43:54.641594,225,-294.4,-0.0253,-0.0295,1.1625
2025-06-04 14:43:56.248177,243,-163.4,-0.0224,-0.0261,1.1591
2025-06-04 14:43:56.348177,243,-294.4,-0.0246,-0.0283,1.1577
2025-06-04 14:43:56.448177,243,-163.4,-0.0219,-0.0312,1.1601
2025-06-04 14:43:57.182980,252,-294.4,-0.0234,-0.0334,1.1625
2025-06-04 14:43:57.282980,252,-425.5,-0.0256,-0.0292,1.1589
2025-06-04 14:43:57.382980,252,-32.3,-0.0239,-0.0295,1.1652
2025-06-04 14:43:57.446102,255,-163.4,-0.0224,-0.0322,1.164
2025-06-04 14:43:57.546102,255,-425.5,-0.028,-0.03,1.166
2025-06-04 14:43:57.646102,255,-556.6,-0.0263,-0.031,1.1655
2025-06-04 14:43:57.987557,4,-425.5,-0.0214,-0.0336,1.1569
2025-06-04 14:43:58.087557,4,-425.5,-0.0244,-0.029,1.1635
2025-06-04 14:43:58.187557,4,-163.4,-0.0229,-0.0297,1.1643
2025-06-04 14:43:58.059997,5,-425.5,-0.0244,-0.029,1.1635
2025-06-04 14:43:58.159997,5,-163.4,-0.0229,-0.0297,1.1643
2025-06-04 14:43:58.259997,5,-163.4,-0.0261,-0.0317,1.1577
2025-06-04 14:43:58.664753,11,-556.6,-0.0229,-0.03,1.1672
2025-06-04 14:43:58.764753,11,-556.6,-0.0236,-0.0351,1.1569
2025-06-04 14:43:58.864753,11,-294.4,-0.0214,-0.0292,1.1689
2025-06-04 14:43:58.900801,14,-294.4,-0.0234,-0.0251,1.1621
2025-06-04 14:43:59.000801,14,-687.7,-0.0209,-0.0297,1.1586
2025-06-04 14:43:59.100801,14,-425.5,-0.0231,-0.0302,1.1582
2025-06-04 14:43:59.215647,16,-425.5,-0.0231,-0.0302,1.1582
2025-06-04 14:43:59.315647,16,-294.4,-0.0239,-0.0295,1.1633
2025-06-04 14:43:59.415647,16,-556.6,-0.0236,-0.0263,1.1557
2025-06-04 14:43:59.792762,22,-163.4,-0.0192,-0.031,1.1567
2025-06-04 14:43:59.892762,22,-294.4,-0.0195,-0.0322,1.1633
2025-06-04 14:43:59.992762,22,-294.4,-0.0227,-0.0297,1.1628
2025-06-04 14:43:59.801535,23,-294.4,-0.0195,-0.0322,1.1633
2025-06-04 14:43:59.901535,23,-294.4,-0.0227,-0.0297,1.1628
2025-06-04 14:44:00.001535,23,-556.6,-0.0234,-0.0302,1.1579
2025-06-04 14:44:00.202269,27,-163.4,-0.0202,-0.0317,1.1621
2025-06-04 14:44:00.302269,27,-425.5,-0.0205,-0.0288,1.1657
2025-06-04 14:44:00.402269,27,-556.6,-0.0239,-0.0278,1.1618
2025-06-04 14:44:00.443179,29,-556.6,-0.0239,-0.0278,1.1618
2025-06-04 14:44:00.543179,29,-425.5,-0.0234,-0.0292,1.1538
2025-06-04 14:44:00.643179,29,-294.4,-0.0212,-0.0283,1.1599
2025-06-04 14:44:00.759664,32,-294.4,-0.0236,-0.0278,1.1638
2025-06-04 14:44:00.859664,32,-294.4,-0.0207,-0.0324,1.1613
2025-06-04 14:44:00.959664,32,-425.5,-0.0222,-0.0278,1.1596
2025-06-04 14:44:01.986071,44,-294.4,-0.0229,-0.0266,1.1621
2025-06-04 14:44:02.086071,44,-687.7,-0.0197,-0.0302,1.165
2025-06-04 14:44:02.186071,44,-687.7,-0.0224,-0.03,1.1684
2025-06-04 14:44:02.187970,46,-687.7,-0.0224,-0.03,1.1684
2025-06-04 14:44:02.287970,46,-687.7,-0.0227,-0.0297,1.1628
2025-06-04 14:44:02.387970,46,-687.7,-0.0246,-0.0285,1.1625
2025-06-04 14:44:02.859261,53,-556.6,-0.0192,-0.027,1.1604
2025-06-04 14:44:02.959261,53,-687.7,-0.0268,-0.0283,1.1577
2025-06-04 14:44:03.059261,53,-687.7,-0.0212,-0.0305,1.1601
2025-06-04 14:44:03.156236,56,-294.4,-0.0187,-0.0275,1.1606
2025-06-04 14:44:03.256236,56,-556.6,-0.0231,-0.0268,1.1613
2025-06-04 14:44:03.356236,56,-687.7,-0.0251,-0.029,1.1577
2025-06-04 14:44:04.001324,65,-556.6,-0.0217,-0.0253,1.1594
2025-06-04 14:44:04.101324,65,-163.4,-0.0212,-0.0268,1.1586
2025-06-04 14:44:04.201324,65,-163.4,-0.0239,-0.0319,1.1645
2025-06-04 14:44:06.779565,92,-294.4,-0.0212,-0.0327,1.1672
2025-06-04 14:44:06.879565,92,-556.6,-0.0231,-0.0285,1.1608
2025-06-04 14:44:06.979565,92,-425.5,-0.0224,-0.0317,1.1623
2025-06-04 14:44:07.382275,98,-294.4,-0.0253,-0.0297,1.1538
2025-06-04 14:44:07.482275,98,-687.7,-0.0231,-0.0292,1.1611
2025-06-04 14:44:07.582275,98,-556.6,-0.0192,-0.0275,1.1572
2025-06-04 14:44:07.557669,100,-556.6,-0.0192,-0.0275,1.1572
2025-06-04 14:44:07.657669,100,-294.4,-0.0278,-0.0305,1.1599
2025-06-04 14:44:07.757669,100,-163.4,-0.0263,-0.0275,1.1669
2025-06-04 14:44:08.701541,112,-163.4,-0.0224,-0.0324,1.1567
2025-06-04 14:44:08.801541,112,-556.6,-0.0192,-0.0336,1.164
2025-06-04 14:44:08.901541,112,-687.7,-0.0222,-0.0295,1.1599
2025-06-04 14:44:10.076835,125,-294.4,-0.0236,-0.0283,1.1633
2025-06-04 14:44:10.176835,125,-163.4,-0.0234,-0.0307,1.155
2025-06-04 14:44:10.276835,125,-294.4,-0.0214,-0.0263,1.1596
2025-06-04 14:44:10.300928,128,-556.6,-0.0236,-0.0288,1.1674
2025-06-04 14:44:10.400928,128,-556.6,-0.0261,-0.0275,1.1552
2025-06-04 14:44:10.500928,128,-425.5,-0.0229,-0.0339,1.164
2025-06-04 14:44:10.618603,130,-425.5,-0.0229,-0.0339,1.164
2025-06-04 14:44:10.718603,130,-294.4,-0.0219,-0.029,1.1582
2025-06-04 14:44:10.818603,130,-556.6,-0.0244,-0.0256,1.1606
2025-06-04 14:44:10.914788,131,-294.4,-0.0219,-0.029,1.1582
2025-06-04 14:44:11.014788,131,-556.6,-0.0244,-0.0256,1.1606
2025-06-04 14:44:11.114788,131,-818.7,-0.0239,-0.0292,1.1608
2025-06-04 14:44:12.618147,151,-687.7,-0.0229,-0.0275,1.1545
2025-06-04 14:44:12.718147,151,-687.7,-0.0246,-0.03,1.1611
2025-06-04 14:44:12.818147,151,-818.7,-0.0261,-0.0307,1.1633
2025-06-04 14:44:12.701735,152,-687.7,-0.0246,-0.03,1.1611
2025-06-04 14:44:12.801735,152,-818.7,-0.0261,-0.0307,1.1633
2025-06-04 14:44:12.901735,152,-687.7,-0.0241,-0.0322,1.1638
2025-06-04 14:44:13.002293,155,-425.5,-0.0217,-0.0295,1.1611
2025-06-04 14:44:13.102293,155,-32.3,-0.0212,-0.0288,1.1604
2025-06-04 14:44:13.202293,155,-163.4,-0.0227,-0.0324,1.1594
2025-06-04 14:44:13.140892,156,-32.3,-0.0212,-0.0288,1.1604
2025-06-04 14:44:13.240892,156,-163.4,-0.0227,-0.0324,1.1594
2025-06-04 14:44:13.340892,156,-556.6,-0.0209,-0.029,1.1625
2025-06-04 14:44:13.940997,164,-556.6,-0.0217,-0.0336,1.1569
2025-06-04 14:44:14.040997,164,-556.6,-0.0231,-0.03,1.1638
2025-06-04 14:44:14.140997,164,-818.7,-0.018,-0.0288,1.1572
2025-06-04 14:44:14.291276,167,-687.7,-0.0197,-0.0302,1.1625
2025-06-04 14:44:14.391276,167,-425.5,-0.0227,-0.0312,1.1628
2025-06-04 14:44:14.491276,167,-425.5,-0.0205,-0.0295,1.1625
2025-06-04 14:44:14.802283,173,-949.8,-0.0283,-0.028,1.1618
2025-06-04 14:44:14.902283,173,-687.7,-0.0195,-0.0268,1.1657
2025-06-04 14:44:15.002283,173,-818.7,-0.0224,-0.03,1.1611
2025-06-04 14:44:15.388621,178,-556.6,-0.0222,-0.0312,1.1562
2025-06-04 14:44:15.488621,178,-949.8,-0.0207,-0.0302,1.1616
2025-06-04 14:44:15.588621,178,-556.6,-0.0246,-0.0322,1.1635
2025-06-04 14:44:15.423855,179,-949.8,-0.0207,-0.0302,1.1616
2025-06-04 14:44:15.523855,179,-556.6,-0.0246,-0.0322,1.1635
2025-06-04 14:44:15.623855,179,-425.5,-0.019,-0.0302,1.1594
2025-06-04 14:44:15.789705,182,-556.6,-0.0244,-0.0305,1.1589
2025-06-04 14:44:15.889705,182,-687.7,-0.0251,-0.0273,1.1606
2025-06-04 14:44:15.989705,182,-818.7,-0.0246,-0.0292,1.1586
2025-06-04 14:44:16.022800,185,-687.7,-0.0209,-0.0324,1.152
2025-06-04 14:44:16.122800,185,-556.6,-0.02,-0.0297,1.1557
2025-06-04 14:44:16.222800,185,-556.6,-0.0202,-0.0314,1.1594
2025-06-04 14:44:16.345571,188,-556.6,-0.0197,-0.0324,1.165
2025-06-04 14:44:16.445571,188,-425.5,-0.0183,-0.0302,1.1572
2025-06-04 14:44:16.545571,188,-294.4,-0.0224,-0.0297,1.1635
2025-06-04 14:44:18.743059,212,-163.4,-0.0234,-0.031,1.1562
2025-06-04 14:44:18.843059,212,-425.5,-0.0207,-0.0305,1.1577
2025-06-04 14:44:18.943059,212,-294.4,-0.0222,-0.0312,1.1599
2025-06-04 14:44:18.995738,214,-294.4,-0.0222,-0.0312,1.1599
2025-06-04 14:44:19.095738,214,-294.4,-0.0236,-0.0307,1.1562
2025-06-04 14:44:19.195738,214,-425.5,-0.0207,-0.0327,1.1611
2025-06-04 14:44:19.299516,218,-163.4,-0.0219,-0.0251,1.1586
2025-06-04 14:44:19.399516,218,-556.6,-0.0241,-0.0327,1.1621
2025-06-04 14:44:19.499516,218,-556.6,-0.0209,-0.03,1.1606
2025-06-04 14:44:19.600924,221,-294.4,-0.019,-0.0234,1.1625
2025-06-04 14:44:19.700924,221,-294.4,-0.0222,-0.0295,1.1557
2025-06-04 14:44:19.800924,221,-163.4,-0.0229,-0.029,1.1625
2025-06-04 14:44:20.199774,227,-294.4,-0.0231,-0.0312,1.164
2025-06-04 14:44:20.299774,227,-32.3,-0.0158,-0.0307,1.1633
2025-06-04 14:44:20.399774,227,-163.4,-0.0207,-0.0297,1.1638
2025-06-04 14:44:20.501008,230,-294.4,-0.0212,-0.03,1.1613
2025-06-04 14:44:20.601008,230,98.8,-0.0261,-0.0341,1.164
2025-06-04 14:44:20.701008,230,-163.4,-0.0212,-0.0292,1.1633
2025-06-04 14:44:20.902139,234,-294.4,-0.0224,-0.0334,1.1569
2025-06-04 14:44:21.002139,234,-425.5,-0.0197,-0.0305,1.1638
2025-06-04 14:44:21.102139,234,-425.5,-0.0217,-0.0288,1.1672
2025-06-04 14:44:21.697586,240,-294.4,-0.0231,-0.0332,1.1647
2025-06-04 14:44:21.797586,240,-163.4,-0.0205,-0.03,1.1591
2025-06-04 14:44:21.897586,240,-556.6,-0.0241,-0.0268,1.165
2025-06-04 14:44:21.716621,242,-556.6,-0.0241,-0.0268,1.165
2025-06-04 14:44:21.816621,242,-294.4,-0.0229,-0.0283,1.1579
2025-06-04 14:44:21.916621,242,-163.4,-0.0192,-0.0297,1.1621
2025-06-04 14:44:22.039443,245,-556.6,-0.0214,-0.0283,1.1604
2025-06-04 14:44:22.139443,245,-294.4,-0.0234,-0.0305,1.1633
2025-06-04 14:44:22.239443,245,-32.3,-0.02,-0.0302,1.153
2025-06-04 14:44:22.417731,249,-1080.9,-0.0222,-0.031,1.1645
2025-06-04 14:44:22.517731,249,-425.5,-0.0227,-0.0278,1.1606
2025-06-04 14:44:22.617731,249,-32.3,-0.0224,-0.0314,1.1591
2025-06-04 14:44:23.282468,1,-556.6,-0.0192,-0.031,1.1569
2025-06-04 14:44:23.382468,1,-687.7,-0.0229,-0.0283,1.1618
2025-06-04 14:44:23.482468,1,-818.7,-0.0239,-0.0283,1.1638
2025-06-04 14:44:23.346289,2,-687.7,-0.0229,-0.0283,1.1618
2025-06-04 14:44:23.446289,2,-818.7,-0.0239,-0.0283,1.1638
2025-06-04 14:44:23.546289,2,-556.6,-0.0192,-0.0319,1.1613
2025-06-04 14:44:23.517446,4,-556.6,-0.0192,-0.0319,1.1613
2025-06-04 14:44:23.617446,4,-163.4,-0.0209,-0.028,1.1579
2025-06-04 14:44:23.717446,4,-556.6,-0.0222,-0.0288,1.1582
2025-06-04 14:44:24.189727,10,-425.5,-0.0202,-0.0273,1.1596
2025-06-04 14:44:24.289727,10,-556.6,-0.0224,-0.0312,1.1669
2025-06-04 14:44:24.389727,10,-294.4,-0.0197,-0.0285,1.1599
2025-06-04 14:44:24.402261,13,-556.6,-0.0227,-0.0349,1.1591
2025-06-04 14:44:24.502261,13,-687.7,-0.0234,-0.0307,1.1613
2025-06-04 14:44:24.602261,13,-687.7,-0.0229,-0.027,1.1645
2025-06-04 14:44:24.703663,14,-687.7,-0.0234,-0.0307,1.1613
2025-06-04 14:44:24.803663,14,-687.7,-0.0229,-0.027,1.1645
2025-06-04 14:44:24.903663,14,-818.7,-0.027,-0.0327,1.1625
2025-06-04 14:44:26.197645,29,-425.5,-0.0249,-0.0275,1.1562
2025-06-04 14:44:26.297645,29,-687.7,-0.0222,-0.0339,1.165
2025-06-04 14:44:26.397645,29,-687.7,-0.0253,-0.0288,1.1645
2025-06-04 14:44:26.244650,31,-687.7,-0.0253,-0.0288,1.1645
2025-06-04 14:44:26.344650,31,-687.7,-0.0205,-0.029,1.1638
2025-06-04 14:44:26.444650,31,-818.7,-0.0209,-0.0283,1.1574
2025-06-04 14:44:27.102034,40,-163.4,-0.0222,-0.0305,1.1625
2025-06-04 14:44:27.202034,40,-687.7,-0.0227,-0.029,1.1577
2025-06-04 14:44:27.302034,40,-687.7,-0.017,-0.029,1.1562
2025-06-04 14:44:27.299577,42,-687.7,-0.017,-0.029,1.1562
2025-06-04 14:44:27.399577,42,-687.7,-0.0231,-0.0273,1.1613
2025-06-04 14:44:27.499577,42,-687.7,-0.0205,-0.0297,1.1589
2025-06-04 14:44:27.702347,46,-294.4,-0.0231,-0.0307,1.1635
2025-06-04 14:44:27.802347,46,-556.6,-0.02,-0.0295,1.1599
2025-06-04 14:44:27.902347,46,-687.7,-0.0231,-0.0285,1.1621
2025-06-04 14:44:28.598843,52,-425.5,-0.0202,-0.0336,1.1657
2025-06-04 14:44:28.698843,52,-163.4,-0.0231,-0.0283,1.156
2025-06-04 14:44:28.798843,52,98.8,-0.0234,-0.0329,1.1604
2025-06-04 14:44:28.602244,55,-32.3,-0.029,-0.0324,1.1569
2025-06-04 14:44:28.702244,55,-556.6,-0.0234,-0.0314,1.1535
2025-06-04 14:44:28.802244,55,-818.7,-0.0212,-0.0292,1.1618
2025-06-04 14:44:28.999475,59,-556.6,-0.0209,-0.03,1.163
2025-06-04 14:44:29.099475,59,-818.7,-0.0236,-0.0283,1.1701
2025-06-04 14:44:29.199475,59,-556.6,-0.0224,-0.0285,1.1599
2025-06-04 14:44:29.247013,61,-556.6,-0.0224,-0.0285,1.1599
2025-06-04 14:44:29.347013,61,-425.5,-0.0236,-0.0302,1.1572
2025-06-04 14:44:29.447013,61,-687.7,-0.0217,-0.027,1.1645
2025-06-04 14:44:29.487151,63,-687.7,-0.0217,-0.027,1.1645
2025-06-04 14:44:29.587151,63,-687.7,-0.0234,-0.031,1.1628
2025-06-04 14:44:29.687151,63,-425.5,-0.0207,-0.03,1.163
2025-06-04 14:44:30.443346,73,-949.8,-0.0273,-0.0275,1.1635
2025-06-04 14:44:30.543346,73,-687.7,-0.0229,-0.031,1.1623
2025-06-04 14:44:30.643346,73,-556.6,-0.0217,-0.0317,1.1669
2025-06-04 14:44:31.000838,79,-687.7,-0.02,-0.0295,1.1633
2025-06-04 14:44:31.100838,79,-425.5,-0.0234,-0.028,1.1591
2025-06-04 14:44:31.200838,79,-294.4,-0.0239,-0.0292,1.1604
2025-06-04 14:44:31.100919,80,-425.5,-0.0234,-0.028,1.1591
2025-06-04 14:44:31.200919,80,-294.4,-0.0239,-0.0292,1.1604
2025-06-04 14:44:31.300919,80,-294.4,-0.0212,-0.0349,1.1647
2025-06-04 14:44:31.301748,82,-294.4,-0.0212,-0.0349,1.1647
2025-06-04 14:44:31.401748,82,-556.6,-0.0234,-0.0322,1.1635
2025-06-04 14:44:31.501748,82,-818.7,-0.0222,-0.0307,1.1569
2025-06-04 14:44:31.806745,86,-687.7,-0.0261,-0.0278,1.1594
2025-06-04 14:44:31.906745,86,-425.5,-0.0231,-0.0305,1.163
2025-06-04 14:44:32.006745,86,-294.4,-0.028,-0.0302,1.1616
2025-06-04 14:44:31.870417,87,-425.5,-0.0231,-0.0305,1.163
2025-06-04 14:44:31.970417,87,-294.4,-0.028,-0.0302,1.1616
2025-06-04 14:44:32.070417,87,-294.4,-0.0217,-0.029,1.1657
2025-06-04 14:44:32.499926,94,-163.4,-0.0222,-0.031,1.1621
2025-06-04 14:44:32.599926,94,-163.4,-0.0214,-0.0314,1.1643
2025-06-04 14:44:32.699926,94,-425.5,-0.02,-0.0288,1.1564
2025-06-04 14:44:32.867364,97,-425.5,-0.0231,-0.0312,1.1591
2025-06-04 14:44:32.967364,97,-425.5,-0.0241,-0.0327,1.164
2025-06-04 14:44:33.067364,97,-556.6,-0.0236,-0.0317,1.1555
2025-06-04 14:44:33.571849,104,-556.6,-0.0195,-0.0273,1.1586
2025-06-04 14:44:33.671849,104,-294.4,-0.0227,-0.028,1.1655
2025-06-04 14:44:33.771849,104,-163.4,-0.0195,-0.0273,1.163
2025-06-04 14:44:33.738305,106,-163.4,-0.0195,-0.0273,1.163
2025-06-04 14:44:33.838305,106,-556.6,-0.0292,-0.027,1.1647
2025-06-04 14:44:33.938305,106,-556.6,-0.0229,-0.0302,1.1618
2025-06-04 14:44:34.600671,115,-818.7,-0.0195,-0.0283,1.1635
2025-06-04 14:44:34.700671,115,-425.5,-0.0246,-0.03,1.1633
2025-06-04 14:44:34.800671,115,-425.5,-0.0253,-0.0256,1.1621
2025-06-04 14:44:34.808018,116,-425.5,-0.0246,-0.03,1.1633
2025-06-04 14:44:34.908018,116,-425.5,-0.0253,-0.0256,1.1621
2025-06-04 14:44:35.008018,116,-425.5,-0.0246,-0.027,1.1562
2025-06-04 14:44:34.885042,117,-425.5,-0.0253,-0.0256,1.1621
2025-06-04 14:44:34.985042,117,-425.5,-0.0246,-0.027,1.1562
2025-06-04 14:44:35.085042,117,-425.5,-0.0224,-0.0275,1.1652
2025-06-04 14:44:35.111413,120,-294.4,-0.0234,-0.0302,1.1647
2025-06-04 14:44:35.211413,120,-163.4,-0.0212,-0.0329,1.1552
2025-06-04 14:44:35.311413,120,-425.5,-0.0175,-0.03,1.1589
2025-06-04 14:44:35.202030,121,-163.4,-0.0212,-0.0329,1.1552
2025-06-04 14:44:35.302030,121,-425.5,-0.0175,-0.03,1.1589
2025-06-04 14:44:35.402030,121,-687.7,-0.0268,-0.0285,1.1613
2025-06-04 14:44:35.399948,123,-687.7,-0.0268,-0.0285,1.1613
2025-06-04 14:44:35.499948,123,-687.7,-0.0239,-0.0285,1.1604
2025-06-04 14:44:35.599948,123,-556.6,-0.0214,-0.0283,1.1606
2025-06-04 14:44:35.541042,124,-687.7,-0.0239,-0.0285,1.1604
2025-06-04 14:44:35.641042,124,-556.6,-0.0214,-0.0283,1.1606
2025-06-04 14:44:35.741042,124,-556.6,-0.027,-0.0307,1.1611
2025-06-04 14:44:35.646470,125,-556.6,-0.0214,-0.0283,1.1606
2025-06-04 14:44:35.746470,125,-556.6,-0.027,-0.0307,1.1611
2025-06-04 14:44:35.846470,125,-425.5,-0.0246,-0.0295,1.1616
2025-06-04 14:44:35.796668,126,-556.6,-0.027,-0.0307,1.1611
2025-06-04 14:44:35.896668,126,-425.5,-0.0246,-0.0295,1.1616
2025-06-04 14:44:35.996668,126,-294.4,-0.0222,-0.0278,1.1552
2025-06-04 14:44:35.801604,127,-425.5,-0.0246,-0.0295,1.1616
2025-06-04 14:44:35.901604,127,-294.4,-0.0222,-0.0278,1.1552
2025-06-04 14:44:36.001604,127,-425.5,-0.0202,-0.0292,1.1604
2025-06-04 14:44:36.005102,128,-294.4,-0.0222,-0.0278,1.1552
2025-06-04 14:44:36.105102,128,-425.5,-0.0202,-0.0292,1.1604
2025-06-04 14:44:36.205102,128,-294.4,-0.0197,-0.0307,1.1672
2025-06-04 14:44:36.346022,132,-425.5,-0.0229,-0.0339,1.1621
2025-06-04 14:44:36.446022,132,-687.7,-0.0202,-0.0319,1.1669
2025-06-04 14:44:36.546022,132,-687.7,-0.0234,-0.031,1.1599
2025-06-04 14:44:36.514952,134,-687.7,-0.0234,-0.031,1.1599
2025-06-04 14:44:36.614952,134,-687.7,-0.0258,-0.028,1.1628
2025-06-04 14:44:36.714952,134,-556.6,-0.0207,-0.0295,1.1547
2025-06-04 14:44:36.600983,135,-687.7,-0.0258,-0.028,1.1628
2025-06-04 14:44:36.700983,135,-556.6,-0.0207,-0.0295,1.1547
2025-06-04 14:44:36.800983,135,-425.5,-0.0214,-0.0283,1.1635
2025-06-04 14:44:36.699425,136,-556.6,-0.0207,-0.0295,1.1547
2025-06-04 14:44:36.799425,136,-425.5,-0.0214,-0.0283,1.1635
2025-06-04 14:44:36.899425,136,-818.7,-0.0263,-0.0307,1.1589
2025-06-04 14:44:37.038519,139,-556.6,-0.0251,-0.0302,1.1611
2025-06-04 14:44:37.138519,139,-294.4,-0.0236,-0.0312,1.156
2025-06-04 14:44:37.238519,139,-163.4,-0.0251,-0.0322,1.1611
2025-06-04 14:44:37.746731,146,-32.3,-0.0273,-0.0292,1.1645
2025-06-04 14:44:37.846731,146,-294.4,-0.0229,-0.0327,1.1606
2025-06-04 14:44:37.946731,146,-425.5,-0.0249,-0.0336,1.164
2025-06-04 14:44:39.102252,160,-425.5,-0.0222,-0.0292,1.1542
2025-06-04 14:44:39.202252,160,-556.6,-0.0224,-0.0292,1.165
2025-06-04 14:44:39.302252,160,-425.5,-0.0224,-0.0266,1.1577
2025-06-04 14:44:39.713878,166,-32.3,-0.0234,-0.0302,1.1604
2025-06-04 14:44:39.813878,166,-425.5,-0.0209,-0.0307,1.1625
2025-06-04 14:44:39.913878,166,-687.7,-0.02,-0.0278,1.1616
2025-06-04 14:44:39.800585,167,-425.5,-0.0209,-0.0307,1.1625
2025-06-04 14:44:39.900585,167,-687.7,-0.02,-0.0278,1.1616
2025-06-04 14:44:40.000585,167,-425.5,-0.0231,-0.0312,1.1586
2025-06-04 14:44:40.605342,174,-949.8,-0.0241,-0.0312,1.1613
2025-06-04 14:44:40.705342,174,-818.7,-0.0241,-0.0312,1.1677
2025-06-04 14:44:40.805342,174,-687.7,-0.0217,-0.0314,1.1572
2025-06-04 14:44:40.902129,178,-556.6,-0.0217,-0.0305,1.1586
2025-06-04 14:44:41.002129,178,-556.6,-0.0214,-0.027,1.1652
2025-06-04 14:44:41.102129,178,-949.8,-0.0219,-0.0329,1.1586
2025-06-04 14:44:42.180977,190,-818.7,-0.0219,-0.0295,1.1628
2025-06-04 14:44:42.280977,190,-949.8,-0.0229,-0.0305,1.1579
2025-06-04 14:44:42.380977,190,-687.7,-0.0234,-0.0292,1.1567
2025-06-04 14:44:42.456270,193,-425.5,-0.0214,-0.0295,1.1633
2025-06-04 14:44:42.556270,193,-425.5,-0.0246,-0.0312,1.1582
2025-06-04 14:44:42.656270,193,-556.6,-0.0202,-0.0305,1.1608
2025-06-04 14:44:42.801030,197,-687.7,-0.0207,-0.0292,1.1618
2025-06-04 14:44:42.901030,197,-687.7,-0.0258,-0.0302,1.1599
2025-06-04 14:44:43.001030,197,-556.6,-0.0246,-0.0324,1.1596
2025-06-04 14:44:43.679850,205,-163.4,-0.0222,-0.0297,1.1591
2025-06-04 14:44:43.779850,205,-32.3,-0.027,-0.0295,1.1599
2025-06-04 14:44:43.879850,205,-163.4,-0.0217,-0.0314,1.1616
2025-06-04 14:44:43.701186,206,-32.3,-0.027,-0.0295,1.1599
2025-06-04 14:44:43.801186,206,-163.4,-0.0217,-0.0314,1.1616
2025-06-04 14:44:43.901186,206,-425.5,-0.0227,-0.0312,1.1582
2025-06-04 14:44:44.244040,211,-949.8,-0.0219,-0.0295,1.1652
2025-06-04 14:44:44.344040,211,-687.7,-0.0217,-0.0324,1.1606
2025-06-04 14:44:44.444040,211,-425.5,-0.0231,-0.0283,1.1618
2025-06-04 14:44:44.513894,214,-818.7,-0.0217,-0.03,1.1579
2025-06-04 14:44:44.613894,214,-556.6,-0.0197,-0.0327,1.1604
2025-06-04 14:44:44.713894,214,-294.4,-0.0195,-0.03,1.1586
2025-06-04 14:44:44.860140,217,-425.5,-0.0256,-0.0288,1.1564
2025-06-04 14:44:44.960140,217,-425.5,-0.0227,-0.027,1.1618
2025-06-04 14:44:45.060140,217,-556.6,-0.0231,-0.03,1.1606
2025-06-04 14:44:45.197998,220,-425.5,-0.0227,-0.0329,1.1611
2025-06-04 14:44:45.297998,220,-294.4,-0.0183,-0.03,1.1618
2025-06-04 14:44:45.397998,220,-556.6,-0.0212,-0.0273,1.1621
2025-06-04 14:44:45.400993,223,-556.6,-0.0195,-0.031,1.1555
2025-06-04 14:44:45.500993,223,-294.4,-0.0217,-0.0273,1.1594
2025-06-04 14:44:45.600993,223,-163.4,-0.0234,-0.0278,1.1572
2025-06-04 14:44:45.815089,226,-294.4,-0.0217,-0.0312,1.1606
2025-06-04 14:44:45.915089,226,-556.6,-0.0214,-0.029,1.1579
2025-06-04 14:44:46.015089,226,-556.6,-0.0249,-0.0317,1.1628
2025-06-04 14:44:46.602077,235,-425.5,-0.0207,-0.0302,1.165
2025-06-04 14:44:46.702077,235,-294.4,-0.0234,-0.0275,1.1625
2025-06-04 14:44:46.802077,235,-556.6,-0.0217,-0.0305,1.1608
2025-06-04 14:44:46.892973,237,-556.6,-0.0217,-0.0305,1.1608
2025-06-04 14:44:46.992973,237,-1080.9,-0.0168,-0.028,1.1569
2025-06-04 14:44:47.092973,237,-1212.0,-0.0212,-0.0312,1.1582
2025-06-04 14:44:47.243686,241,-425.5,-0.0268,-0.0307,1.1604
2025-06-04 14:44:47.343686,241,-818.7,-0.0234,-0.0312,1.1506
2025-06-04 14:44:47.443686,241,-949.8,-0.0244,-0.0336,1.1674
2025-06-04 14:44:47.300910,242,-818.7,-0.0234,-0.0312,1.1506
2025-06-04 14:44:47.400910,242,-949.8,-0.0244,-0.0336,1.1674
2025-06-04 14:44:47.500910,242,-556.6,-0.02,-0.0295,1.1594
2025-06-04 14:44:47.575209,244,-556.6,-0.02,-0.0295,1.1594
2025-06-04 14:44:47.675209,244,-425.5,-0.0185,-0.0275,1.1574
2025-06-04 14:44:47.775209,244,-425.5,-0.0244,-0.0268,1.1652
2025-06-04 14:44:47.801146,247,-556.6,-0.0249,-0.0312,1.1582
2025-06-04 14:44:47.901146,247,-556.6,-0.0239,-0.0319,1.1552
2025-06-04 14:44:48.001146,247,-556.6,-0.0236,-0.0332,1.1589
2025-06-04 14:44:48.410798,252,-818.7,-0.0214,-0.0305,1.165
2025-06-04 14:44:48.510798,252,-556.6,-0.0222,-0.031,1.1594
2025-06-04 14:44:48.610798,252,-687.7,-0.0236,-0.0329,1.1638
2025-06-04 14:44:48.992174,2,-687.7,-0.0217,-0.0283,1.1655
2025-06-04 14:44:49.092174,2,-818.7,-0.0227,-0.0288,1.1643
2025-06-04 14:44:49.192174,2,-556.6,-0.0256,-0.0341,1.1628
2025-06-04 14:44:49.980766,12,-949.8,-0.0205,-0.027,1.1643
2025-06-04 14:44:50.080766,12,-949.8,-0.0217,-0.0324,1.1589
2025-06-04 14:44:50.180766,12,-1080.9,-0.0202,-0.0283,1.1628
2025-06-04 14:44:50.496568,16,-425.5,-0.0251,-0.0305,1.1625
2025-06-04 14:44:50.596568,16,-687.7,-0.0224,-0.0302,1.1611
2025-06-04 14:44:50.696568,16,-556.6,-0.0197,-0.0319,1.1601
2025-06-04 14:44:51.144843,24,-818.7,-0.0236,-0.0305,1.1643
2025-06-04 14:44:51.244843,24,-687.7,-0.0249,-0.0307,1.1586
2025-06-04 14:44:51.344843,24,-687.7,-0.0202,-0.0327,1.1594
2025-06-04 14:44:51.485833,27,-818.7,-0.0207,-0.0266,1.1611
2025-06-04 14:44:51.585833,27,-556.6,-0.0251,-0.0253,1.1569
2025-06-04 14:44:51.685833,27,-425.5,-0.0227,-0.0266,1.156
2025-06-04 14:44:51.717741,30,-687.7,-0.0187,-0.0302,1.1625
2025-06-04 14:44:51.817741,30,-818.7,-0.0244,-0.0302,1.164
2025-06-04 14:44:51.917741,30,-818.7,-0.0239,-0.0322,1.1604
2025-06-04 14:44:52.301156,36,-687.7,-0.0241,-0.0295,1.1601
2025-06-04 14:44:52.401156,36,-294.4,-0.0249,-0.0288,1.1665
2025-06-04 14:44:52.501156,36,98.8,-0.0239,-0.0288,1.1586
2025-06-04 14:44:52.602297,39,-163.4,-0.0219,-0.0332,1.1652
2025-06-04 14:44:52.702297,39,-556.6,-0.0185,-0.0305,1.1589
2025-06-04 14:44:52.802297,39,-687.7,-0.019,-0.031,1.1613
2025-06-04 14:44:53.155487,44,-425.5,-0.0241,-0.0283,1.1591
2025-06-04 14:44:53.255487,44,-163.4,-0.0183,-0.0314,1.1647
2025-06-04 14:44:53.355487,44,-425.5,-0.0173,-0.0283,1.1589
2025-06-04 14:44:53.849186,51,-556.6,-0.0202,-0.031,1.1596
2025-06-04 14:44:53.949186,51,-556.6,-0.0231,-0.0297,1.1555
2025-06-04 14:44:54.049186,51,-818.7,-0.0214,-0.0275,1.164
2025-06-04 14:44:54.447630,57,-294.4,-0.0168,-0.0327,1.1608
2025-06-04 14:44:54.547630,57,-294.4,-0.0224,-0.0295,1.1623
2025-06-04 14:44:54.647630,57,-425.5,-0.0253,-0.0297,1.1689
2025-06-04 14:44:54.777269,60,-425.5,-0.0258,-0.0275,1.1625
2025-06-04 14:44:54.877269,60,-163.4,-0.0246,-0.0263,1.1572
2025-06-04 14:44:54.977269,60,-687.7,-0.0251,-0.0217,1.1606
2025-06-04 14:44:54.947015,62,-687.7,-0.0251,-0.0217,1.1606
2025-06-04 14:44:55.047015,62,-949.8,-0.0244,-0.0314,1.1621
2025-06-04 14:44:55.147015,62,-687.7,-0.0266,-0.0312,1.1564
2025-06-04 14:44:55.291335,65,-556.6,-0.0278,-0.028,1.164
2025-06-04 14:44:55.391335,65,-425.5,-0.0227,-0.0302,1.1611
2025-06-04 14:44:55.315286,66,-425.5,-0.0227,-0.0302,1.1611
2025-06-04 14:44:55.415286,66,-556.6,-0.0214,-0.0317,1.1606
2025-06-04 14:44:55.515286,66,-556.6,-0.018,-0.0266,1.1569
2025-06-04 14:44:55.864083,71,-294.4,-0.0251,-0.0319,1.1586
2025-06-04 14:44:55.964083,71,-32.3,-0.0258,-0.0283,1.1616
2025-06-04 14:44:56.064083,71,-425.5,-0.0231,-0.0297,1.1608
2025-06-04 14:44:56.202624,75,-687.7,-0.0239,-0.0314,1.1577
2025-06-04 14:44:56.302624,75,-556.6,-0.0227,-0.0292,1.1545
2025-06-04 14:44:56.402624,75,-556.6,-0.0236,-0.029,1.1586
2025-06-04 14:44:57.153470,84,-425.5,-0.0234,-0.0261,1.1621
2025-06-04 14:44:57.253470,84,-425.5,-0.0236,-0.0292,1.1589
2025-06-04 14:44:57.353470,84,-556.6,-0.0236,-0.0292,1.1591
2025-06-04 14:44:57.546930,88,-818.7,-0.0236,-0.0295,1.1567
2025-06-04 14:44:57.646930,88,-687.7,-0.0231,-0.0288,1.1591
2025-06-04 14:44:57.746930,88,-556.6,-0.0229,-0.0288,1.1628
2025-06-04 14:44:57.635400,89,-687.7,-0.0231,-0.0288,1.1591
2025-06-04 14:44:57.735400,89,-556.6,-0.0229,-0.0288,1.1628
2025-06-04 14:44:57.831400,89,-425.5,-0.0231,-0.0302,1.1586
2025-06-04 14:44:58.042260,93,-556.6,-0.0209,-0.0268,1.1694
2025-06-04 14:44:58.142260,93,-425.5,-0.0241,-0.031,1.1589
2025-06-04 14:44:58.242260,93,-687.7,-0.0222,-0.0297,1.1689
2025-06-04 14:44:58.342476,96,-687.7,-0.0256,-0.0285,1.1625
2025-06-04 14:44:58.442476,96,-556.6,-0.02,-0.0292,1.1606
2025-06-04 14:44:58.542476,96,-425.5,-0.0234,-0.0275,1.1594
2025-06-04 14:44:58.500007,97,-556.6,-0.02,-0.0292,1.1606
2025-06-04 14:44:58.600007,97,-425.5,-0.0234,-0.0275,1.1594
2025-06-04 14:44:58.700007,97,-425.5,-0.0224,-0.0241,1.1596
2025-06-04 14:44:58.783445,100,-818.7,-0.0205,-0.0305,1.1547
2025-06-04 14:44:58.883445,100,-687.7,-0.0207,-0.0302,1.1579
2025-06-04 14:44:58.983445,100,-163.4,-0.0224,-0.0275,1.1606
