date_time timestamp pressure accel_x accel_y accel_z gyro_x gyro_y gyro_z
2025-05-13 18:58:19.030 08:37.3 1176.6 0.0381 -0.0166 0.9692 -2.1 1.3 0.2
2025-05-13 18:58:19.130 08:37.4 1202.8 0.0361 -0.0125 0.9675 -2.2 1.3 0.3
2025-05-13 18:58:19.229 08:37.5 1202.8 0.0366 -0.0176 0.9739 -2.3 1.2 0.3
2025-05-13 18:58:19.329 08:37.6 1202.8 0.0339 -0.0164 0.9705 -2.2 1.2 0.3
2025-05-13 18:58:19.429 08:37.7 1189.7 0.0303 -0.0154 0.9788 -2.1 1.3 0.3
2025-05-13 18:58:19.531 08:37.8 1150.4 0.0376 -0.0195 0.9749 -2.2 1.3 0.2
2025-05-13 18:58:19.629 08:37.9 1150.4 0.0347 -0.0142 0.9724 -2.1 1.2 0.2
2025-05-13 18:58:19.730 08:38.0 1189.7 0.0352 -0.0154 0.9712 -2.2 1.3 0.2
2025-05-13 18:58:19.829 08:38.1 1202.8 0.0376 -0.0164 0.9719 -2.3 1.3 0.1
2025-05-13 18:58:19.930 08:38.2 1215.9 0.0366 -0.0168 0.9675 -2.4 1.4 0.3
2025-05-13 18:58:20.030 08:38.3 1215.9 0.0344 -0.0166 0.9692 -2.2 1.5 0.2
2025-05-13 18:58:20.129 08:38.4 1189.7 0.0359 -0.0117 0.9683 -2.1 1.2 0.3
2025-05-13 18:58:20.229 08:38.5 1189.7 0.0383 -0.0132 0.9700 -2.2 1.3 0.2
2025-05-13 18:58:20.330 08:38.6 1202.8 0.0332 -0.0151 0.9744 -2.1 1.6 0.3
2025-05-13 18:58:20.430 08:38.7 1202.8 0.0315 -0.0205 0.9783 -2.3 1.2 0.3
2025-05-13 18:58:20.529 08:38.8 1215.9 0.0359 -0.0156 0.9771 -2.4 1.2 0.4
2025-05-13 18:58:20.629 08:38.9 1202.8 0.0334 -0.0129 0.9761 -2.1 1.5 0.4
2025-05-13 18:58:20.730 08:39.0 1229.0 0.0374 -0.0149 0.9702 -2.4 1.3 0.2
2025-05-13 18:58:20.830 08:39.1 1255.2 0.0339 -0.0146 0.9707 -2.2 1.5 0.2
2025-05-13 18:58:20.929 08:39.2 1255.2 0.0356 -0.0181 0.9731 -2.3 1.4 0.1
2025-05-13 18:58:21.029 08:39.3 1242.1 0.0327 -0.0176 0.9675 -2.3 1.2 0.2
2025-05-13 18:58:21.130 08:39.4 1215.9 0.0376 -0.0161 0.9641 -2.3 1.4 0.2
2025-05-13 18:58:21.229 08:39.5 1242.1 0.0295 -0.0081 0.9644 -2.2 1.3 0.2
2025-05-13 18:58:21.329 08:39.6 1255.2 0.0264 -0.0220 0.9788 -2.4 1.1 0.1
2025-05-13 18:58:21.429 08:39.7 1242.1 0.0383 -0.0127 0.9727 -2.3 1.1 0.3
2025-05-13 18:58:21.529 08:39.8 1215.9 0.0344 -0.0161 0.9697 -2.3 1.4 0.3
2025-05-13 18:58:21.629 08:39.9 1255.2 0.0291 -0.0183 0.9753 -2.2 1.2 0.2
2025-05-13 18:58:21.729 08:40.0 1281.4 0.0312 -0.0110 0.9744 -2.3 1.4 0.2
2025-05-13 18:58:21.829 08:40.1 1242.1 0.0354 -0.0205 0.9646 -2.0 1.2 0.2
2025-05-13 18:58:21.965 08:40.2 1229.0 0.0320 -0.0181 0.9707 -2.3 1.2 0.2
2025-05-13 18:58:22.029 08:40.3 1215.9 0.0330 -0.0171 0.9722 -2.3 1.3 0.3
2025-05-13 18:58:22.129 08:40.4 1215.9 0.0371 -0.0122 0.9792 -2.3 1.4 0.3
2025-05-13 18:58:22.229 08:40.5 1215.9 0.0356 -0.0183 0.9788 -2.3 1.4 0.2
2025-05-13 18:58:22.329 08:40.6 1215.9 0.0378 -0.0173 0.9714 -2.0 1.5 0.2
2025-05-13 18:58:22.429 08:40.7 1242.1 0.0312 -0.0203 0.9658 -2.2 1.5 0.2
2025-05-13 18:58:22.530 08:40.8 1229.0 0.0361 -0.0146 0.9714 -2.1 1.4 0.2
2025-05-13 18:58:22.629 08:40.9 1229.0 0.0374 -0.0212 0.9709 -2.1 1.3 0.2
2025-05-13 18:58:22.729 08:41.0 1229.0 0.0417 -0.0176 0.9675 -2.2 1.0 0.2
2025-05-13 18:58:22.829 08:41.1 1255.2 0.0347 -0.0144 0.9773 -2.2 1.5 0.1
2025-05-13 18:58:22.929 08:41.2 1255.2 0.0330 -0.0112 0.9741 -2.2 1.5 0.2
2025-05-13 18:58:23.029 08:41.3 1255.2 0.0347 -0.0173 0.9624 -2.3 1.5 0.2
2025-05-13 18:58:23.130 08:41.4 1268.3 0.0332 -0.0205 0.9700 -2.2 1.4 0.3
2025-05-13 18:58:23.229 08:41.5 1268.3 0.0337 -0.0117 0.9758 -2.2 1.3 0.3
2025-05-13 18:58:23.329 08:41.6 1242.1 0.0403 -0.0125 0.9714 -2.3 1.4 0.2
2025-05-13 18:58:23.430 08:41.7 1229.0 0.0352 -0.0112 0.9690 -2.2 1.2 0.2
2025-05-13 18:58:23.530 08:41.8 1215.9 0.0317 -0.0164 0.9692 -2.1 1.1 0.3
2025-05-13 18:58:23.629 08:41.9 1215.9 0.0291 -0.0205 0.9644 -2.4 1.5 0.2
2025-05-13 18:58:23.730 08:42.0 1176.6 0.0320 -0.0183 0.9705 -2.2 1.2 0.1
2025-05-13 18:58:23.830 08:42.1 1163.5 0.0298 -0.0088 0.9670 -2.4 1.2 0.1
2025-05-13 18:58:23.930 08:42.2 1176.6 0.0310 -0.0166 0.9607 -2.2 1.4 0.3
2025-05-13 18:58:24.030 08:42.3 1215.9 0.0349 -0.0154 0.9639 -2.0 1.3 0.1
2025-05-13 18:58:24.130 08:42.4 1202.8 0.0293 -0.0166 0.9802 -2.2 1.4 0.2
2025-05-13 18:58:24.230 08:42.5 1189.7 0.0366 -0.0100 0.9724 -2.3 1.2 0.3
2025-05-13 18:58:24.329 08:42.6 1189.7 0.0264 -0.0095 0.9700 -2.2 1.3 0.1
2025-05-13 18:58:24.430 08:42.7 1215.9 0.0376 -0.0127 0.9802 -2.3 1.5 0.3
2025-05-13 18:58:24.529 08:42.8 1229.0 0.0366 -0.0217 0.9712 -2.1 1.3 0.2
2025-05-13 18:58:24.629 08:42.9 1202.8 0.0332 -0.0125 0.9668 -2.3 1.2 0.2
2025-05-13 18:58:24.730 08:43.0 1189.7 0.0354 -0.0120 0.9668 -2.2 1.3 0.3
2025-05-13 18:58:24.829 08:43.1 1202.8 0.0320 -0.0166 0.9651 -2.3 1.4 0.2
2025-05-13 18:58:24.930 08:43.2 1229.0 0.0381 -0.0151 0.9648 -2.3 1.6 0.1
2025-05-13 18:58:25.029 08:43.3 1229.0 0.0376 -0.0168 0.9636 -2.1 1.2 0.1
2025-05-13 18:58:25.130 08:43.4 1242.1 0.0339 -0.0129 0.9678 -2.1 1.5 0.1
2025-05-13 18:58:25.230 08:43.5 1255.2 0.0339 -0.0176 0.9736 -2.1 1.4 0.3
2025-05-13 18:58:25.329 08:43.6 1242.1 0.0344 -0.0190 0.9729 -2.1 1.3 0.3
2025-05-13 18:58:25.429 08:43.7 1229.0 0.0322 -0.0198 0.9651 -2.3 1.4 0.2
2025-05-13 18:58:25.529 08:43.8 1229.0 0.0327 -0.0171 0.9673 -2.3 1.2 0.2
2025-05-13 18:58:25.629 08:43.9 1202.8 0.0332 -0.0203 0.9680 -2.2 1.1 0.2
2025-05-13 18:58:25.730 08:44.0 1229.0 0.0339 -0.0144 0.9695 -2.2 1.5 0.3
2025-05-13 18:58:25.829 08:44.1 1255.2 0.0315 -0.0154 0.9734 -2.0 1.3 0.1
2025-05-13 18:58:25.929 08:44.2 1229.0 0.0408 -0.0161 0.9775 -2.1 1.5 0.3
2025-05-13 18:58:26.029 08:44.3 1255.2 0.0298 -0.0132 0.9609 -2.3 1.6 0.3
2025-05-13 18:58:26.129 08:44.4 1255.2 0.0334 -0.0103 0.9714 -2.2 1.2 0.2
2025-05-13 18:58:26.229 08:44.5 1229.0 0.0286 -0.0071 0.9697 -2.3 1.1 0.2
2025-05-13 18:58:26.329 08:44.6 1229.0 0.0388 -0.0146 0.9646 -2.2 1.5 0.1
2025-05-13 18:58:26.429 08:44.7 1242.1 0.0366 -0.0127 0.9705 -2.3 1.3 0.4
2025-05-13 18:58:26.529 08:44.8 1229.0 0.0369 -0.0134 0.9724 -2.2 1.2 0.3
2025-05-13 18:58:26.629 08:44.9 1229.0 0.0330 -0.0151 0.9692 -2.1 1.2 0.3
2025-05-13 18:58:26.729 08:45.0 1215.9 0.0327 -0.0200 0.9692 -2.3 1.2 0.3
2025-05-13 18:58:26.829 08:45.1 1202.8 0.0298 -0.0122 0.9678 -2.2 1.4 0.1
2025-05-13 18:58:26.929 08:45.2 1229.0 0.0330 -0.0132 0.9712 -2.1 1.1 0.3
2025-05-13 18:58:27.029 08:45.3 1268.3 0.0315 -0.0195 0.9663 -2.2 1.5 0.5
2025-05-13 18:58:27.129 08:45.4 1255.2 0.0364 -0.0076 0.9705 -2.2 1.6 0.1
2025-05-13 18:58:27.230 08:45.5 1242.1 0.0369 -0.0173 0.9717 -2.1 1.2 0.3
2025-05-13 18:58:27.329 08:45.6 1229.0 0.0303 -0.0120 0.9683 -2.3 1.4 0.5
2025-05-13 18:58:27.429 08:45.7 1229.0 0.0352 -0.0112 0.9731 -2.1 1.6 0.3
2025-05-13 18:58:27.529 08:45.8 1202.8 0.0381 -0.0276 0.9631 -2.3 1.2 0.3
2025-05-13 18:58:27.629 08:45.9 1150.4 0.0320 -0.0112 0.9641 -2.2 1.3 0.2
2025-05-13 18:58:27.729 08:46.0 1163.5 0.0371 -0.0132 0.9626 -2.2 1.4 0.1
2025-05-13 18:58:27.829 08:46.1 1202.8 0.0381 -0.0105 0.9771 -2.2 1.2 0.2
2025-05-13 18:58:27.929 08:46.2 1229.0 0.0317 -0.0151 0.9595 -2.1 1.3 0.2
2025-05-13 18:58:28.030 08:46.3 1229.0 0.0398 -0.0178 0.9702 -2.2 1.2 0.1
2025-05-13 18:58:28.129 08:46.4 1215.9 0.0410 -0.0159 0.9685 -2.3 1.5 0.3
2025-05-13 18:58:28.229 08:46.5 1202.8 0.0364 -0.0156 0.9683 -2.3 1.5 0.2
2025-05-13 18:58:28.329 08:46.6 1202.8 0.0332 -0.0071 0.9741 -2.2 1.5 0.2
2025-05-13 18:58:28.429 08:46.7 1202.8 0.0334 -0.0127 0.9666 -2.3 1.3 0.2
2025-05-13 18:58:28.530 08:46.8 1202.8 0.0354 -0.0171 0.9697 -2.1 1.4 0.3
2025-05-13 18:58:28.629 08:46.9 1215.9 0.0398 -0.0146 0.9668 -2.2 1.3 0.2
2025-05-13 18:58:28.730 08:47.0 1215.9 0.0312 -0.0159 0.9768 -2.1 1.3 0.4
2025-05-13 18:58:28.829 08:47.1 1215.9 0.0359 -0.0120 0.9673 -2.1 1.2 0.2
2025-05-13 18:58:28.930 08:47.2 1215.9 0.0344 -0.0122 0.9661 -2.1 1.5 0.5
2025-05-13 18:58:29.029 08:47.3 1242.1 0.0276 -0.0146 0.9749 -2.3 1.1 0.4
2025-05-13 18:58:29.129 08:47.4 1229.0 0.0251 -0.0159 0.9758 -2.3 1.3 0.1
2025-05-13 18:58:29.229 08:47.5 1215.9 0.0315 -0.0181 0.9609 -2.0 1.2 0.2
2025-05-13 18:58:29.330 08:47.6 1229.0 0.0381 -0.0183 0.9712 -2.4 1.3 0.3
2025-05-13 18:58:29.430 08:47.7 1242.1 0.0381 -0.0151 0.9810 -2.3 1.4 0.3
2025-05-13 18:58:29.530 08:47.8 1229.0 0.0259 -0.0100 0.9661 -2.1 1.3 0.4
2025-05-13 18:58:29.629 08:47.9 1255.2 0.0344 -0.0171 0.9666 -2.1 1.4 0.5
2025-05-13 18:58:29.730 08:48.0 1255.2 0.0320 -0.0183 0.9646 -2.2 1.4 0.4
2025-05-13 18:58:29.829 08:48.1 1268.3 0.0374 -0.0159 0.9705 -2.3 1.6 0.2
2025-05-13 18:58:29.929 08:48.2 1229.0 0.0369 -0.0203 0.9724 -2.2 1.2 0.4
2025-05-13 18:58:30.029 08:48.3 1229.0 0.0322 -0.0154 0.9697 -2.2 1.2 0.1
2025-05-13 18:58:30.129 08:48.4 1242.1 0.0327 -0.0105 0.9673 -2.1 1.3 0.1
2025-05-13 18:58:30.229 08:48.5 1215.9 0.0361 -0.0129 0.9800 -2.2 1.4 0.3
2025-05-13 18:58:30.329 08:48.6 1215.9 0.0325 -0.0161 0.9753 -2.2 1.2 0.3
2025-05-13 18:58:30.430 08:48.7 1242.1 0.0366 -0.0103 0.9714 -2.1 1.3 0.2
2025-05-13 18:58:30.529 08:48.8 1242.1 0.0356 -0.0127 0.9673 -2.2 1.4 0.3
2025-05-13 18:58:30.629 08:48.9 1242.1 0.0332 -0.0151 0.9607 -2.3 1.4 0.2
2025-05-13 18:58:30.729 08:49.0 1268.3 0.0337 -0.0110 0.9727 -2.2 1.4 0.2
2025-05-13 18:58:30.829 08:49.1 1255.2 0.0288 -0.0120 0.9666 -2.3 1.5 0.1
2025-05-13 18:58:30.929 08:49.2 1215.9 0.0322 -0.0186 0.9656 -2.3 1.5 0.2
2025-05-13 18:58:31.029 08:49.3 1215.9 0.0359 -0.0159 0.9741 -2.3 1.3 0.3
2025-05-13 18:58:31.129 08:49.4 1215.9 0.0310 -0.0200 0.9690 -2.0 1.5 0.3
2025-05-13 18:58:31.230 08:49.5 1215.9 0.0381 -0.0100 0.9666 -2.1 1.5 0.2
2025-05-13 18:58:31.329 08:49.6 1229.0 0.0339 -0.0142 0.9761 -2.3 1.7 0.2
2025-05-13 18:58:31.429 08:49.7 1215.9 0.0344 -0.0200 0.9724 -2.1 1.1 0.4
2025-05-13 18:58:31.530 08:49.8 1215.9 0.0369 -0.0166 0.9675 -2.4 1.2 0.4
2025-05-13 18:58:31.630 08:49.9 1215.9 0.0352 -0.0181 0.9739 -2.3 1.3 0.2
2025-05-13 18:58:31.730 08:50.0 1189.7 0.0273 -0.0127 0.9695 -2.3 1.0 0.1
2025-05-13 18:58:31.831 08:50.1 1202.8 0.0398 -0.0181 0.9641 -2.2 1.7 0.2
2025-05-13 18:58:31.929 08:50.2 1202.8 0.0310 -0.0146 0.9741 -2.4 1.0 0.1
2025-05-13 18:58:32.029 08:50.3 1176.6 0.0334 -0.0081 0.9680 -2.2 1.2 0.2
2025-05-13 18:58:32.129 08:50.4 1150.4 0.0315 -0.0200 0.9685 -2.2 1.2 0.4
2025-05-13 18:58:32.229 08:50.5 1189.7 0.0359 -0.0146 0.9756 -2.3 1.4 0.2
2025-05-13 18:58:32.330 08:50.6 1189.7 0.0378 -0.0178 0.9661 -2.1 1.4 0.2
2025-05-13 18:58:32.429 08:50.7 1202.8 0.0403 -0.0139 0.9717 -2.3 1.6 0.1
2025-05-13 18:58:32.530 08:50.8 1176.6 0.0308 -0.0171 0.9636 -2.2 1.3 0.2
2025-05-13 18:58:32.630 08:50.9 1150.4 0.0337 -0.0203 0.9663 -2.2 1.3 0.3
2025-05-13 18:58:32.730 08:51.0 1176.6 0.0369 -0.0134 0.9736 -2.2 1.2 0.1
2025-05-13 18:58:32.829 08:51.1 1176.6 0.0361 -0.0173 0.9663 -2.1 1.4 0.3
2025-05-13 18:58:32.929 08:51.2 1176.6 0.0354 -0.0161 0.9695 -2.2 1.3 0.2
2025-05-13 18:58:33.029 08:51.3 1202.8 0.0327 -0.0134 0.9736 -2.4 1.3 0.3
2025-05-13 18:58:33.130 08:51.4 1215.9 0.0315 -0.0159 0.9697 -2.1 1.3 0.2
2025-05-13 18:58:33.229 08:51.5 1202.8 0.0339 -0.0134 0.9634 -2.1 1.4 0.2
2025-05-13 18:58:33.330 08:51.6 1202.8 0.0391 -0.0156 0.9741 -2.2 1.3 0.1
2025-05-13 18:58:33.429 08:51.7 1215.9 0.0330 -0.0151 0.9612 -2.2 1.1 0.2
2025-05-13 18:58:33.530 08:51.8 1176.6 0.0278 -0.0139 0.9746 -2.2 1.1 0.2
2025-05-13 18:58:33.630 08:51.9 1189.7 0.0322 -0.0166 0.9670 -2.4 1.4 0.4
2025-05-13 18:58:33.730 08:52.0 1202.8 0.0308 -0.0176 0.9734 -2.1 1.3 0.3
2025-05-13 18:58:33.829 08:52.1 1189.7 0.0330 -0.0146 0.9600 -2.4 1.2 0.1
2025-05-13 18:58:33.929 08:52.2 1215.9 0.0308 -0.0181 0.9631 -2.2 1.2 0.3
2025-05-13 18:58:34.029 08:52.3 1229.0 0.0332 -0.0068 0.9629 -2.1 1.1 0.2
2025-05-13 18:58:34.129 08:52.4 1229.0 0.0283 -0.0156 0.9692 -2.1 1.4 0.2
2025-05-13 18:58:34.229 08:52.5 1215.9 0.0300 -0.0154 0.9692 -2.2 1.3 0.2
2025-05-13 18:58:34.330 08:52.6 1202.8 0.0337 -0.0176 0.9690 -2.3 1.4 0.3
2025-05-13 18:58:34.429 08:52.7 1255.2 0.0310 -0.0166 0.9678 -2.2 1.4 0.2
2025-05-13 18:58:34.529 08:52.8 1255.2 0.0334 -0.0193 0.9724 -2.4 1.6 0.3
2025-05-13 18:58:34.629 08:52.9 1229.0 0.0322 -0.0149 0.9624 -2.2 1.4 0.3
2025-05-13 18:58:34.730 08:53.0 1202.8 0.0388 -0.0127 0.9709 -2.4 1.4 0.1
2025-05-13 18:58:34.829 08:53.1 1189.7 0.0361 -0.0186 0.9700 -2.3 1.3 0.2
2025-05-13 18:58:34.929 08:53.2 1189.7 0.0371 -0.0122 0.9688 -2.1 1.3 0.2
2025-05-13 18:58:35.029 08:53.3 1150.4 0.0352 -0.0151 0.9775 -2.5 1.1 0.2
2025-05-13 18:58:35.129 08:53.4 1163.5 0.0361 -0.0195 0.9658 -2.3 1.1 0.2
2025-05-13 18:58:35.229 08:53.5 1189.7 0.0337 -0.0120 0.9658 -2.1 1.4 0.1
2025-05-13 18:58:35.329 08:53.6 1189.7 0.0308 -0.0149 0.9731 -2.3 1.4 0.2
2025-05-13 18:58:35.429 08:53.7 1163.5 0.0347 -0.0176 0.9688 -2.4 1.4 0.2
2025-05-13 18:58:35.529 08:53.8 1189.7 0.0371 -0.0112 0.9802 -2.2 1.4 0.2
2025-05-13 18:58:35.629 08:53.9 1215.9 0.0339 -0.0144 0.9634 -2.3 1.1 0.1
2025-05-13 18:58:35.729 08:54.0 1215.9 0.0410 -0.0205 0.9604 -2.2 1.4 0.2
2025-05-13 18:58:35.830 08:54.1 1215.9 0.0325 -0.0120 0.9685 -2.2 1.3 0.2
2025-05-13 18:58:35.929 08:54.2 1202.8 0.0352 -0.0151 0.9729 -2.3 1.3 0.1
2025-05-13 18:58:36.029 08:54.3 1229.0 0.0347 -0.0127 0.9626 -2.2 1.3 0.3
2025-05-13 18:58:36.129 08:54.4 1202.8 0.0286 -0.0083 0.9702 -2.1 1.2 0.3
2025-05-13 18:58:36.229 08:54.5 1176.6 0.0308 -0.0127 0.9666 -2.3 1.2 0.4
2025-05-13 18:58:36.329 08:54.6 1202.8 0.0352 -0.0100 0.9692 -2.3 1.2 0.3
2025-05-13 18:58:36.429 08:54.7 1189.7 0.0342 -0.0178 0.9717 -2.1 1.4 0.3
2025-05-13 18:58:36.529 08:54.8 1189.7 0.0371 -0.0107 0.9656 -2.3 1.1 0.2
2025-05-13 18:58:36.629 08:54.9 1176.6 0.0308 -0.0208 0.9705 -2.1 1.4 0.3
2025-05-13 18:58:36.729 08:55.0 1163.5 0.0361 -0.0132 0.9736 -2.1 1.4 0.1
2025-05-13 18:58:36.829 08:55.1 1202.8 0.0349 -0.0190 0.9695 -2.3 1.4 0.3
2025-05-13 18:58:36.929 08:55.2 1229.0 0.0315 -0.0166 0.9690 -2.3 1.3 0.2
2025-05-13 18:58:37.029 08:55.3 1202.8 0.0376 -0.0144 0.9788 -2.3 1.5 0.0
2025-05-13 18:58:37.129 08:55.4 1202.8 0.0359 -0.0122 0.9700 -2.2 1.6 0.2
2025-05-13 18:58:37.229 08:55.5 1189.7 0.0334 -0.0139 0.9692 -2.2 1.5 0.2
2025-05-13 18:58:37.329 08:55.6 1176.6 0.0371 -0.0120 0.9736 -2.2 1.6 0.2
2025-05-13 18:58:37.429 08:55.7 1202.8 0.0291 -0.0183 0.9739 -2.1 1.3 0.3
2025-05-13 18:58:37.529 08:55.8 1215.9 0.0320 -0.0146 0.9702 -2.2 1.3 0.2
2025-05-13 18:58:37.629 08:55.9 1215.9 0.0320 -0.0200 0.9680 -2.3 1.4 0.1
2025-05-13 18:58:37.731 08:56.0 1215.9 0.0361 -0.0166 0.9719 -2.3 1.5 0.3
2025-05-13 18:58:37.830 08:56.1 1215.9 0.0295 -0.0164 0.9744 -2.1 1.1 0.3
2025-05-13 18:58:37.929 08:56.2 1229.0 0.0349 -0.0168 0.9724 -2.3 1.4 0.2
2025-05-13 18:58:38.029 08:56.3 1215.9 0.0332 -0.0181 0.9688 -2.2 1.1 0.3
2025-05-13 18:58:38.129 08:56.4 1202.8 0.0393 -0.0188 0.9646 -2.3 1.3 0.2
2025-05-13 18:58:38.229 08:56.5 1242.1 0.0320 -0.0166 0.9646 -2.2 1.0 0.1
2025-05-13 18:58:38.330 08:56.6 1255.2 0.0361 -0.0110 0.9709 -2.3 1.2 0.1
2025-05-13 18:58:38.430 08:56.7 1229.0 0.0322 -0.0137 0.9763 -2.2 1.4 0.4
2025-05-13 18:58:38.529 08:56.8 1215.9 0.0359 -0.0115 0.9658 -2.3 1.3 0.3
2025-05-13 18:58:38.629 08:56.9 1229.0 0.0366 -0.0173 0.9761 -2.2 1.3 0.2
2025-05-13 18:58:38.729 08:57.0 1229.0 0.0349 -0.0098 0.9712 -2.3 1.3 0.3
2025-05-13 18:58:38.829 08:57.1 1202.8 0.0312 -0.0193 0.9685 -2.1 1.1 0.2
2025-05-13 18:58:38.929 08:57.2 1229.0 0.0366 -0.0200 0.9653 -2.2 1.4 0.2
2025-05-13 18:58:39.029 08:57.3 1242.1 0.0325 -0.0171 0.9688 -2.2 1.5 0.2
2025-05-13 18:58:39.129 08:57.4 1255.2 0.0356 -0.0129 0.9685 -2.2 1.5 0.1
2025-05-13 18:58:39.230 08:57.5 1242.1 0.0354 -0.0081 0.9666 -2.3 1.4 0.3
2025-05-13 18:58:39.330 08:57.6 1242.1 0.0354 -0.0181 0.9678 -2.3 1.2 0.1
2025-05-13 18:58:39.429 08:57.7 1215.9 0.0300 -0.0110 0.9675 -2.2 1.5 0.3
2025-05-13 18:58:39.530 08:57.8 1215.9 0.0347 -0.0183 0.9683 -2.2 1.4 0.3
2025-05-13 18:58:39.629 08:57.9 1242.1 0.0266 -0.0217 0.9719 -2.3 1.3 0.3
2025-05-13 18:58:39.730 08:58.0 1242.1 0.0303 -0.0142 0.9678 -2.3 1.3 0.1
2025-05-13 18:58:39.830 08:58.1 1255.2 0.0327 -0.0154 0.9702 -2.1 1.4 0.2
2025-05-13 18:58:39.929 08:58.2 1229.0 0.0298 -0.0127 0.9695 -2.2 1.4 0.1
2025-05-13 18:58:40.029 08:58.3 1215.9 0.0334 -0.0161 0.9597 -2.3 1.2 0.2
2025-05-13 18:58:40.129 08:58.4 1229.0 0.0305 -0.0022 0.9688 -2.2 1.3 -0.0
2025-05-13 18:58:40.229 08:58.5 1215.9 0.0354 -0.0134 0.9795 -2.2 1.4 0.2
2025-05-13 18:58:40.329 08:58.6 1202.8 0.0308 -0.0073 0.9714 -2.3 1.5 0.1
2025-05-13 18:58:40.429 08:58.7 1202.8 0.0400 -0.0139 0.9675 -2.2 1.4 0.2
2025-05-13 18:58:40.529 08:58.8 1189.7 0.0405 -0.0198 0.9712 -2.2 1.3 0.3
2025-05-13 18:58:40.629 08:58.9 1189.7 0.0364 -0.0142 0.9724 -2.2 1.3 0.3
2025-05-13 18:58:40.729 08:59.0 1202.8 0.0315 -0.0173 0.9719 -2.2 1.3 0.4
2025-05-13 18:58:40.829 08:59.1 1229.0 0.0337 -0.0120 0.9697 -2.3 1.2 0.2
2025-05-13 18:58:40.929 08:59.2 1242.1 0.0300 -0.0142 0.9763 -2.2 1.3 0.2
2025-05-13 18:58:41.029 08:59.3 1215.9 0.0342 -0.0186 0.9697 -2.3 1.3 0.1
2025-05-13 18:58:41.129 08:59.4 1189.7 0.0344 -0.0151 0.9592 -2.2 1.2 -0.0
2025-05-13 18:58:41.229 08:59.5 1189.7 0.0291 -0.0117 0.9697 -2.4 1.4 0.2
2025-05-13 18:58:41.329 08:59.6 1202.8 0.0352 -0.0149 0.9761 -2.2 1.7 0.1
2025-05-13 18:58:41.430 08:59.7 1215.9 0.0361 -0.0120 0.9729 -2.2 1.4 0.1
2025-05-13 18:58:41.529 08:59.8 1242.1 0.0430 -0.0193 0.9734 -2.2 1.3 0.1
2025-05-13 18:58:41.629 08:59.9 1242.1 0.0361 -0.0200 0.9668 -2.2 1.2 0.1
2025-05-13 18:58:41.730 09:00.0 1229.0 0.0347 -0.0166 0.9683 -2.2 1.5 0.3
2025-05-13 18:58:41.829 09:00.1 1215.9 0.0371 -0.0144 0.9712 -2.2 1.4 0.2
2025-05-13 18:58:41.930 09:00.2 1202.8 0.0293 -0.0127 0.9705 -2.3 1.3 0.2
2025-05-13 18:58:42.029 09:00.3 1202.8 0.0342 -0.0161 0.9690 -2.0 1.3 0.2
2025-05-13 18:58:42.129 09:00.4 1215.9 0.0339 -0.0142 0.9670 -2.2 1.3 0.2
2025-05-13 18:58:42.229 09:00.5 1202.8 0.0249 -0.0115 0.9673 -2.2 1.4 0.1
2025-05-13 18:58:42.329 09:00.6 1202.8 0.0339 -0.0178 0.9741 -2.2 1.2 0.2
2025-05-13 18:58:42.430 09:00.7 1229.0 0.0327 -0.0095 0.9636 -2.2 1.4 0.1
2025-05-13 18:58:42.530 09:00.8 1229.0 0.0334 -0.0115 0.9712 -2.2 1.2 0.3
2025-05-13 18:58:42.629 09:00.9 1229.0 0.0342 -0.0161 0.9731 -2.3 1.3 0.2
2025-05-13 18:58:42.730 09:01.0 1229.0 0.0359 -0.0190 0.9656 -2.3 1.5 0.2
2025-05-13 18:58:42.829 09:01.1 1229.0 0.0325 -0.0144 0.9707 -2.3 1.4 0.2
2025-05-13 18:58:42.930 09:01.2 1242.1 0.0408 -0.0134 0.9756 -2.3 1.4 0.4
2025-05-13 18:58:43.030 09:01.3 1242.1 0.0303 -0.0154 0.9683 -2.2 1.4 0.2
2025-05-13 18:58:43.129 09:01.4 1215.9 0.0269 -0.0198 0.9705 -2.3 1.3 0.3
2025-05-13 18:58:43.230 09:01.5 1189.7 0.0320 -0.0129 0.9673 -2.2 1.5 0.1
2025-05-13 18:58:43.329 09:01.6 1189.7 0.0310 -0.0144 0.9783 -2.1 1.4 0.2
2025-05-13 18:58:43.429 09:01.7 1189.7 0.0371 -0.0144 0.9707 -2.1 1.4 0.0
2025-05-13 18:58:43.529 09:01.8 1202.8 0.0308 -0.0198 0.9661 -2.2 1.5 0.3
2025-05-13 18:58:43.629 09:01.9 1202.8 0.0271 -0.0168 0.9824 -2.4 1.4 0.3
2025-05-13 18:58:43.729 09:02.0 1215.9 0.0344 -0.0144 0.9707 -2.1 1.2 0.2
2025-05-13 18:58:43.829 09:02.1 1215.9 0.0359 -0.0193 0.9849 -2.2 1.5 0.2
2025-05-13 18:58:43.929 09:02.2 1242.1 0.0391 -0.0154 0.9675 -2.2 1.3 0.2
2025-05-13 18:58:44.029 09:02.3 1242.1 0.0376 -0.0105 0.9749 -2.3 1.3 0.2
2025-05-13 18:58:44.129 09:02.4 1229.0 0.0354 -0.0139 0.9758 -2.2 1.2 0.1
2025-05-13 18:58:44.229 09:02.5 1255.2 0.0322 -0.0178 0.9714 -2.4 1.3 0.2
2025-05-13 18:58:44.329 09:02.6 1242.1 0.0366 -0.0178 0.9697 -2.2 1.2 0.1
2025-05-13 18:58:44.429 09:02.7 1215.9 0.0369 -0.0225 0.9644 -2.2 1.3 0.1
2025-05-13 18:58:44.529 09:02.8 1202.8 0.0312 -0.0164 0.9761 -2.3 1.5 0.2
2025-05-13 18:58:44.629 09:02.9 1202.8 0.0371 -0.0188 0.9604 -2.1 1.2 0.2
2025-05-13 18:58:44.729 09:03.0 1242.1 0.0344 -0.0151 0.9673 -2.2 1.5 0.2
2025-05-13 18:58:44.829 09:03.1 1215.9 0.0342 -0.0146 0.9692 -2.2 1.6 0.0
2025-05-13 18:58:44.929 09:03.2 1189.7 0.0332 -0.0171 0.9746 -2.2 1.2 0.2
2025-05-13 18:58:45.029 09:03.3 1215.9 0.0361 -0.0159 0.9695 -2.3 1.5 0.2
2025-05-13 18:58:45.129 09:03.4 1229.0 0.0295 -0.0149 0.9761 -2.1 1.4 0.3
2025-05-13 18:58:45.229 09:03.5 1242.1 0.0293 -0.0200 0.9595 -2.3 1.4 0.2
2025-05-13 18:58:45.330 09:03.6 1255.2 0.0366 -0.0149 0.9746 -2.3 1.5 0.1
2025-05-13 18:58:45.429 09:03.7 1255.2 0.0398 -0.0232 0.9692 -2.4 1.3 0.2
2025-05-13 18:58:45.529 09:03.8 1281.4 0.0334 -0.0181 0.9775 -2.0 1.3 0.3
2025-05-13 18:58:45.629 09:03.9 1255.2 0.0334 -0.0156 0.9749 -2.4 1.4 0.1
2025-05-13 18:58:45.729 09:04.0 1229.0 0.0356 -0.0144 0.9707 -2.3 1.4 0.3
2025-05-13 18:58:45.829 09:04.1 1215.9 0.0334 -0.0203 0.9700 -2.3 1.3 0.2
2025-05-13 18:58:45.929 09:04.2 1242.1 0.0356 -0.0222 0.9705 -2.2 1.3 0.2
2025-05-13 18:58:46.029 09:04.3 1281.4 0.0352 -0.0149 0.9766 -2.3 1.2 0.2
2025-05-13 18:58:46.129 09:04.4 1281.4 0.0334 -0.0117 0.9741 -2.2 1.4 0.2
2025-05-13 18:58:46.229 09:04.5 1215.9 0.0300 -0.0190 0.9673 -2.2 1.4 0.3
2025-05-13 18:58:46.329 09:04.6 1189.7 0.0305 -0.0205 0.9790 -1.9 1.5 0.2
2025-05-13 18:58:46.429 09:04.7 1215.9 0.0325 -0.0149 0.9683 -2.2 1.4 0.3
2025-05-13 18:58:46.529 09:04.8 1202.8 0.0303 -0.0115 0.9734 -2.2 1.5 0.3
2025-05-13 18:58:46.630 09:04.9 1176.6 0.0403 -0.0127 0.9702 -2.2 1.3 0.3
2025-05-13 18:58:46.729 09:05.0 1202.8 0.0327 -0.0154 0.9683 -2.2 1.6 0.2
2025-05-13 18:58:46.829 09:05.1 1215.9 0.0310 -0.0178 0.9641 -2.1 1.2 0.2
2025-05-13 18:58:46.929 09:05.2 1215.9 0.0337 -0.0171 0.9697 -2.2 1.5 0.3
2025-05-13 18:58:47.029 09:05.3 1255.2 0.0354 -0.0166 0.9727 -2.0 1.3 0.2
2025-05-13 18:58:47.129 09:05.4 1255.2 0.0339 -0.0122 0.9785 -2.5 1.5 0.2
2025-05-13 18:58:47.229 09:05.5 1229.0 0.0344 -0.0112 0.9753 -2.4 1.3 0.3
2025-05-13 18:58:47.330 09:05.6 1255.2 0.0369 -0.0105 0.9668 -2.2 1.2 0.2
2025-05-13 18:58:47.429 09:05.7 1242.1 0.0264 -0.0168 0.9780 -2.0 1.1 0.1
2025-05-13 18:58:47.529 09:05.8 1189.7 0.0349 -0.0146 0.9722 -2.0 1.8 0.2
2025-05-13 18:58:47.629 09:05.9 1215.9 0.0366 -0.0198 0.9648 -2.3 1.3 0.2
2025-05-13 18:58:47.729 09:06.0 1215.9 0.0339 -0.0100 0.9658 -2.2 1.2 0.1
2025-05-13 18:58:47.829 09:06.1 1202.8 0.0312 -0.0186 0.9661 -2.1 1.3 0.1
2025-05-13 18:58:47.929 09:06.2 1215.9 0.0315 -0.0227 0.9692 -2.3 1.3 0.3
2025-05-13 18:58:48.029 09:06.3 1202.8 0.0317 -0.0129 0.9702 -2.3 1.1 0.3
2025-05-13 18:58:48.129 09:06.4 1189.7 0.0369 -0.0200 0.9683 -2.2 1.5 0.1
2025-05-13 18:58:48.229 09:06.5 1202.8 0.0291 -0.0166 0.9666 -2.1 1.4 0.3
2025-05-13 18:58:48.329 09:06.6 1229.0 0.0300 -0.0144 0.9690 -2.4 1.5 0.3
2025-05-13 18:58:48.429 09:06.7 1229.0 0.0273 -0.0134 0.9749 -2.1 1.4 0.2
2025-05-13 18:58:48.529 09:06.8 1229.0 0.0369 -0.0154 0.9702 -2.2 1.4 0.3
2025-05-13 18:58:48.629 09:06.9 1229.0 0.0322 -0.0068 0.9697 -2.2 1.4 0.2
2025-05-13 18:58:48.729 09:07.0 1242.1 0.0312 -0.0142 0.9648 -1.9 1.3 0.2
2025-05-13 18:58:48.829 09:07.1 1242.1 0.0334 -0.0144 0.9763 -2.1 1.4 0.1
2025-05-13 18:58:48.929 09:07.2 1229.0 0.0315 -0.0146 0.9736 -2.3 1.1 0.1
2025-05-13 18:58:49.029 09:07.3 1215.9 0.0383 -0.0156 0.9553 -2.3 1.1 0.2
2025-05-13 18:58:49.129 09:07.4 1215.9 0.0371 -0.0142 0.9714 -2.1 1.4 0.2
2025-05-13 18:58:49.229 09:07.5 1229.0 0.0337 -0.0137 0.9756 -2.2 1.4 0.2
2025-05-13 18:58:49.329 09:07.6 1255.2 0.0322 -0.0164 0.9666 -2.2 1.4 0.2
2025-05-13 18:58:49.429 09:07.7 1242.1 0.0303 -0.0129 0.9651 -2.3 1.3 0.2
2025-05-13 18:58:49.529 09:07.8 1215.9 0.0234 -0.0151 0.9702 -2.1 1.2 0.1
2025-05-13 18:58:49.629 09:07.9 1229.0 0.0327 -0.0164 0.9688 -2.4 1.3 0.2
2025-05-13 18:58:49.729 09:08.0 1229.0 0.0320 -0.0166 0.9602 -2.3 1.6 0.2
2025-05-13 18:58:49.829 09:08.1 1215.9 0.0322 -0.0151 0.9766 -2.2 1.5 0.1
2025-05-13 18:58:49.929 09:08.2 1215.9 0.0269 -0.0173 0.9695 -2.2 1.4 0.1
2025-05-13 18:58:50.029 09:08.3 1215.9 0.0337 -0.0166 0.9666 -2.0 1.4 0.1
2025-05-13 18:58:50.129 09:08.4 1215.9 0.0352 -0.0190 0.9670 -2.2 1.5 0.2
2025-05-13 18:58:50.229 09:08.5 1215.9 0.0239 -0.0146 0.9727 -2.3 1.4 0.4
2025-05-13 18:58:50.329 09:08.6 1215.9 0.0325 -0.0081 0.9756 -2.2 1.3 0.3
2025-05-13 18:58:50.429 09:08.7 1202.8 0.0435 -0.0161 0.9788 -2.2 1.5 0.3
2025-05-13 18:58:50.530 09:08.8 1229.0 0.0303 -0.0115 0.9656 -2.1 1.1 0.2
2025-05-13 18:58:50.629 09:08.9 1255.2 0.0334 -0.0186 0.9727 -2.2 1.4 0.4
2025-05-13 18:58:50.729 09:09.0 1255.2 0.0349 -0.0110 0.9675 -2.2 1.2 0.4
2025-05-13 18:58:50.829 09:09.1 1229.0 0.0349 -0.0144 0.9583 -2.2 1.2 0.2
2025-05-13 18:58:50.929 09:09.2 1202.8 0.0312 -0.0125 0.9673 -2.2 1.5 0.3
2025-05-13 18:58:51.029 09:09.3 1189.7 0.0337 -0.0151 0.9702 -2.2 1.0 0.2
2025-05-13 18:58:51.129 09:09.4 1229.0 0.0259 -0.0137 0.9739 -2.3 1.4 0.3
2025-05-13 18:58:51.229 09:09.5 1255.2 0.0312 -0.0125 0.9727 -2.0 1.3 0.3
2025-05-13 18:58:51.329 09:09.6 1242.1 0.0352 -0.0132 0.9661 -2.4 1.3 0.2
2025-05-13 18:58:51.429 09:09.7 1242.1 0.0366 -0.0166 0.9648 -2.1 1.3 0.1
2025-05-13 18:58:51.529 09:09.8 1242.1 0.0376 -0.0168 0.9712 -2.3 1.3 0.2
2025-05-13 18:58:51.629 09:09.9 1229.0 0.0371 -0.0176 0.9707 -2.2 1.4 0.2
2025-05-13 18:58:51.729 09:10.0 1202.8 0.0330 -0.0173 0.9688 -2.1 1.2 0.0
2025-05-13 18:58:51.829 09:10.1 1229.0 0.0322 -0.0132 0.9675 -2.4 1.1 0.2
2025-05-13 18:58:51.929 09:10.2 1229.0 0.0378 -0.0139 0.9727 -2.2 1.4 0.4
2025-05-13 18:58:52.029 09:10.3 1215.9 0.0408 -0.0220 0.9727 -2.2 1.2 0.2
2025-05-13 18:58:52.129 09:10.4 1215.9 0.0359 -0.0134 0.9783 -2.4 1.1 0.3
2025-05-13 18:58:52.229 09:10.5 1215.9 0.0349 -0.0132 0.9717 -2.1 1.3 0.3
2025-05-13 18:58:52.330 09:10.6 1215.9 0.0344 -0.0151 0.9695 -2.2 1.5 0.2
2025-05-13 18:58:52.429 09:10.7 1215.9 0.0354 -0.0127 0.9624 -2.3 1.2 0.4
2025-05-13 18:58:52.529 09:10.8 1229.0 0.0242 -0.0181 0.9727 -2.3 1.3 0.3
2025-05-13 18:58:52.630 09:10.9 1229.0 0.0354 -0.0146 0.9695 -2.4 1.1 0.3
2025-05-13 18:58:52.729 09:11.0 1229.0 0.0271 -0.0095 0.9695 -2.1 1.5 0.2
2025-05-13 18:58:52.830 09:11.1 1229.0 0.0354 -0.0193 0.9741 -2.3 1.1 0.3
2025-05-13 18:58:52.929 09:11.2 1215.9 0.0330 -0.0168 0.9673 -2.5 1.0 0.2
2025-05-13 18:58:53.030 09:11.3 1202.8 0.0315 -0.0188 0.9712 -2.1 1.4 0.3
2025-05-13 18:58:53.129 09:11.4 1215.9 0.0342 -0.0215 0.9683 -2.2 1.3 0.2
2025-05-13 18:58:53.229 09:11.5 1229.0 0.0322 -0.0166 0.9746 -2.1 1.2 0.2
2025-05-13 18:58:53.329 09:11.6 1242.1 0.0376 -0.0125 0.9624 -2.2 1.3 0.2
2025-05-13 18:58:53.430 09:11.7 1255.2 0.0347 -0.0129 0.9670 -2.4 1.0 0.3
2025-05-13 18:58:53.529 09:11.8 1268.3 0.0312 -0.0166 0.9727 -2.3 1.2 0.2
2025-05-13 18:58:53.629 09:11.9 1268.3 0.0303 -0.0154 0.9624 -2.3 1.3 0.1
2025-05-13 18:58:53.729 09:12.0 1242.1 0.0298 -0.0161 0.9673 -2.3 1.3 0.2
2025-05-13 18:58:53.829 09:12.1 1229.0 0.0295 -0.0115 0.9592 -2.3 1.2 0.2
2025-05-13 18:58:53.929 09:12.2 1242.1 0.0369 -0.0137 0.9714 -2.2 1.2 0.3
2025-05-13 18:58:54.029 09:12.3 1242.1 0.0327 -0.0154 0.9751 -2.1 1.5 0.1
2025-05-13 18:58:54.129 09:12.4 1242.1 0.0303 -0.0186 0.9712 -2.3 1.3 0.3
2025-05-13 18:58:54.229 09:12.5 1255.2 0.0386 -0.0156 0.9619 -2.4 1.0 0.2
2025-05-13 18:58:54.329 09:12.6 1215.9 0.0337 -0.0139 0.9644 -2.3 1.2 0.1
2025-05-13 18:58:54.429 09:12.7 1202.8 0.0352 -0.0117 0.9617 -2.3 1.2 0.2
2025-05-13 18:58:54.529 09:12.8 1229.0 0.0327 -0.0166 0.9675 -2.2 1.2 0.2
2025-05-13 18:58:54.629 09:12.9 1242.1 0.0339 -0.0166 0.9719 -2.3 1.4 0.3
2025-05-13 18:58:54.729 09:13.0 1215.9 0.0415 -0.0139 0.9602 -2.1 1.4 0.1
2025-05-13 18:58:54.829 09:13.1 1189.7 0.0366 -0.0154 0.9683 -2.2 1.2 0.3
2025-05-13 18:58:54.929 09:13.2 1215.9 0.0327 -0.0015 0.9734 -2.5 1.3 0.1
2025-05-13 18:58:55.029 09:13.3 1229.0 0.0359 -0.0129 0.9636 -2.1 1.5 0.2
2025-05-13 18:58:55.129 09:13.4 1215.9 0.0388 -0.0281 0.9700 -2.2 1.1 0.2
2025-05-13 18:58:55.229 09:13.5 1189.7 0.0298 -0.0198 0.9695 -2.3 1.1 0.1
2025-05-13 18:58:55.329 09:13.6 1176.6 0.0408 -0.0181 0.9705 -2.3 1.6 0.1
2025-05-13 18:58:55.429 09:13.7 1202.8 0.0347 -0.0193 0.9709 -2.2 1.3 0.2
2025-05-13 18:58:55.529 09:13.8 1229.0 0.0359 -0.0168 0.9651 -2.3 1.5 0.2
2025-05-13 18:58:55.629 09:13.9 1242.1 0.0339 -0.0173 0.9653 -2.3 1.6 0.3
2025-05-13 18:58:55.729 09:14.0 1242.1 0.0359 -0.0125 0.9712 -2.2 1.5 0.3
2025-05-13 18:58:55.829 09:14.1 1242.1 0.0344 -0.0129 0.9731 -2.1 1.4 0.3
2025-05-13 18:58:55.930 09:14.2 1202.8 0.0334 -0.0139 0.9749 -2.1 1.2 0.2
2025-05-13 18:58:56.029 09:14.3 1215.9 0.0300 -0.0161 0.9717 -2.1 1.3 0.2
2025-05-13 18:58:56.129 09:14.4 1215.9 0.0315 -0.0154 0.9607 -2.0 1.3 0.4
2025-05-13 18:58:56.229 09:14.5 1176.6 0.0308 -0.0178 0.9656 -2.2 1.1 0.2
2025-05-13 18:58:56.329 09:14.6 1163.5 0.0322 -0.0132 0.9744 -2.2 1.3 0.3
2025-05-13 18:58:56.429 09:14.7 1189.7 0.0352 -0.0110 0.9670 -2.1 1.4 0.1
2025-05-13 18:58:56.529 09:14.8 1215.9 0.0342 -0.0125 0.9636 -2.2 1.3 0.4
2025-05-13 18:58:56.629 09:14.9 1215.9 0.0371 -0.0122 0.9636 -2.1 1.5 0.2
2025-05-13 18:58:56.729 09:15.0 1229.0 0.0371 -0.0129 0.9678 -2.3 1.1 0.2
2025-05-13 18:58:56.829 09:15.1 1229.0 0.0334 -0.0195 0.9690 -2.2 1.3 0.3
2025-05-13 18:58:56.929 09:15.2 1242.1 0.0410 -0.0203 0.9678 -2.2 1.3 0.3
2025-05-13 18:58:57.029 09:15.3 1229.0 0.0349 -0.0088 0.9712 -2.0 1.4 0.3
2025-05-13 18:58:57.129 09:15.4 1242.1 0.0269 -0.0117 0.9644 -1.9 1.4 0.2
2025-05-13 18:58:57.229 09:15.5 1255.2 0.0361 -0.0161 0.9685 -2.1 1.7 0.1
2025-05-13 18:58:57.329 09:15.6 1242.1 0.0378 -0.0161 0.9746 -2.2 1.3 0.3
2025-05-13 18:58:57.429 09:15.7 1242.1 0.0320 -0.0208 0.9695 -2.1 1.5 0.3
2025-05-13 18:58:57.529 09:15.8 1268.3 0.0320 -0.0181 0.9705 -2.1 1.2 0.2
2025-05-13 18:58:57.629 09:15.9 1242.1 0.0269 -0.0127 0.9595 -2.4 1.1 0.3
2025-05-13 18:58:57.729 09:16.0 1229.0 0.0305 -0.0164 0.9695 -2.2 1.3 0.4
2025-05-13 18:58:57.829 09:16.1 1242.1 0.0337 -0.0186 0.9678 -2.2 1.2 0.4
2025-05-13 18:58:57.929 09:16.2 1242.1 0.0339 -0.0188 0.9663 -2.2 1.3 0.3
2025-05-13 18:58:58.029 09:16.3 1242.1 0.0361 -0.0132 0.9690 -2.1 1.1 0.4
2025-05-13 18:58:58.129 09:16.4 1215.9 0.0342 -0.0195 0.9741 -2.2 1.3 0.4
2025-05-13 18:58:58.229 09:16.5 1215.9 0.0369 -0.0212 0.9705 -2.0 1.4 0.3
2025-05-13 18:58:58.329 09:16.6 1229.0 0.0396 -0.0146 0.9680 -2.2 1.3 0.2
2025-05-13 18:58:58.429 09:16.7 1229.0 0.0334 -0.0151 0.9670 -2.2 1.3 0.4
2025-05-13 18:58:58.529 09:16.8 1229.0 0.0386 -0.0134 0.9673 -2.1 1.6 0.1
2025-05-13 18:58:58.629 09:16.9 1242.1 0.0322 -0.0244 0.9717 -2.3 1.3 0.1
2025-05-13 18:58:58.729 09:17.0 1242.1 0.0349 -0.0164 0.9695 -2.3 1.3 0.3
2025-05-13 18:58:58.829 09:17.1 1255.2 0.0305 -0.0146 0.9685 -2.3 1.5 0.3
2025-05-13 18:58:58.929 09:17.2 1255.2 0.0383 -0.0112 0.9592 -2.0 1.5 0.2
2025-05-13 18:58:59.029 09:17.3 1242.1 0.0305 -0.0151 0.9744 -2.3 1.3 0.2
2025-05-13 18:58:59.129 09:17.4 1281.4 0.0352 -0.0208 0.9666 -2.2 1.4 0.3
2025-05-13 18:58:59.229 09:17.5 1307.7 0.0352 -0.0166 0.9788 -2.3 1.4 0.2
2025-05-13 18:58:59.329 09:17.6 1268.3 0.0366 -0.0164 0.9683 -2.2 1.1 0.3
2025-05-13 18:58:59.429 09:17.7 1255.2 0.0283 -0.0125 0.9812 -2.4 1.2 0.4
2025-05-13 18:58:59.529 09:17.8 1255.2 0.0315 -0.0171 0.9753 -2.2 1.3 0.2
2025-05-13 18:58:59.629 09:17.9 1255.2 0.0359 -0.0193 0.9819 -2.1 1.4 0.3
2025-05-13 18:58:59.729 09:18.0 1268.3 0.0386 -0.0127 0.9651 -2.3 1.4 0.2
2025-05-13 18:58:59.829 09:18.1 1242.1 0.0300 -0.0186 0.9585 -2.3 1.4 0.2
2025-05-13 18:58:59.929 09:18.2 1215.9 0.0312 -0.0144 0.9744 -2.3 1.4 0.2
2025-05-13 18:59:00.029 09:18.3 1189.7 0.0339 -0.0168 0.9658 -2.3 1.2 0.1
2025-05-13 18:59:00.129 09:18.4 1202.8 0.0273 -0.0120 0.9670 -2.2 1.2 0.1
2025-05-13 18:59:00.229 09:18.5 1268.3 0.0308 -0.0132 0.9702 -2.1 1.5 0.3
2025-05-13 18:59:00.329 09:18.6 1255.2 0.0342 -0.0168 0.9624 -2.3 1.5 0.2
2025-05-13 18:59:00.433 09:18.7 1215.9 0.0413 -0.0171 0.9668 -2.2 1.5 0.3
2025-05-13 18:59:00.529 09:18.8 1229.0 0.0305 -0.0198 0.9675 -2.2 1.4 0.0
2025-05-13 18:59:00.629 09:18.9 1242.1 0.0349 -0.0181 0.9768 -2.3 1.4 0.5
2025-05-13 18:59:00.729 09:19.0 1215.9 0.0388 -0.0205 0.9727 -2.3 1.3 0.5
2025-05-13 18:59:00.829 09:19.1 1189.7 0.0344 -0.0181 0.9714 -2.3 1.3 0.1
2025-05-13 18:59:00.929 09:19.2 1202.8 0.0337 -0.0112 0.9692 -2.2 1.2 0.3
2025-05-13 18:59:01.029 09:19.3 1202.8 0.0300 -0.0168 0.9705 -2.1 1.5 0.3
2025-05-13 18:59:01.129 09:19.4 1215.9 0.0386 -0.0115 0.9727 -2.2 1.4 0.2
2025-05-13 18:59:01.229 09:19.5 1242.1 0.0266 -0.0146 0.9663 -2.3 1.3 0.2
2025-05-13 18:59:01.329 09:19.6 1242.1 0.0366 -0.0176 0.9705 -2.3 1.1 0.1
2025-05-13 18:59:01.429 09:19.7 1242.1 0.0339 -0.0139 0.9819 -2.6 1.2 0.3
2025-05-13 18:59:01.529 09:19.8 1215.9 0.0342 -0.0215 0.9705 -2.4 1.3 0.2
2025-05-13 18:59:01.629 09:19.9 1242.1 0.0310 -0.0183 0.9717 -2.1 1.5 0.1
2025-05-13 18:59:01.729 09:20.0 1281.4 0.0359 -0.0137 0.9705 -2.2 1.3 0.3
2025-05-13 18:59:01.829 09:20.1 1281.4 0.0317 -0.0156 0.9675 -2.1 1.2 0.3
2025-05-13 18:59:01.929 09:20.2 1242.1 0.0381 -0.0117 0.9724 -2.3 1.2 0.2
2025-05-13 18:59:02.029 09:20.3 1242.1 0.0269 -0.0107 0.9639 -2.2 1.2 0.1
2025-05-13 18:59:02.129 09:20.4 1255.2 0.0356 -0.0142 0.9771 -2.2 1.3 0.1
2025-05-13 18:59:02.229 09:20.5 1242.1 0.0327 -0.0144 0.9695 -2.2 1.2 0.3
2025-05-13 18:59:02.329 09:20.6 1229.0 0.0371 -0.0181 0.9705 -2.1 1.5 0.3
2025-05-13 18:59:02.429 09:20.7 1242.1 0.0349 -0.0132 0.9719 -2.1 1.4 0.2
2025-05-13 18:59:02.529 09:20.8 1229.0 0.0393 -0.0142 0.9736 -2.3 1.3 0.3
2025-05-13 18:59:02.629 09:20.9 1268.3 0.0369 -0.0190 0.9668 -2.3 1.2 0.2
2025-05-13 18:59:02.729 09:21.0 1255.2 0.0334 -0.0149 0.9734 -2.3 1.3 0.4
2025-05-13 18:59:02.829 09:21.1 1229.0 0.0312 -0.0139 0.9707 -2.2 1.3 0.3
2025-05-13 18:59:02.929 09:21.2 1229.0 0.0354 -0.0107 0.9668 -2.4 1.3 0.2
2025-05-13 18:59:03.029 09:21.3 1215.9 0.0327 -0.0186 0.9658 -2.2 1.2 0.3
2025-05-13 18:59:03.129 09:21.4 1242.1 0.0361 -0.0215 0.9641 -2.1 1.1 0.4
2025-05-13 18:59:03.229 09:21.5 1242.1 0.0366 -0.0176 0.9636 -2.3 1.1 0.3
2025-05-13 18:59:03.329 09:21.6 1229.0 0.0322 -0.0183 0.9736 -2.2 1.3 0.3
2025-05-13 18:59:03.428 09:21.7 1255.2 0.0366 -0.0188 0.9668 -2.0 1.4 0.2
2025-05-13 18:59:03.529 09:21.8 1268.3 0.0386 -0.0115 0.9697 -2.2 1.3 0.3
2025-05-13 18:59:03.629 09:21.9 1268.3 0.0330 -0.0134 0.9683 -2.1 1.3 0.2
2025-05-13 18:59:03.729 09:22.0 1229.0 0.0354 -0.0142 0.9656 -2.4 1.4 0.2
2025-05-13 18:59:03.829 09:22.1 1229.0 0.0266 -0.0120 0.9700 -2.3 1.3 0.3
2025-05-13 18:59:03.929 09:22.2 1268.3 0.0334 -0.0122 0.9695 -2.2 1.3 0.3
2025-05-13 18:59:04.029 09:22.3 1268.3 0.0464 -0.0205 0.9717 -2.2 1.5 0.3
2025-05-13 18:59:04.129 09:22.4 1242.1 0.0298 -0.0215 0.9673 -2.3 1.3 0.2
2025-05-13 18:59:04.229 09:22.5 1268.3 0.0391 -0.0181 0.9675 -2.1 1.5 0.3
2025-05-13 18:59:04.329 09:22.6 1294.5 0.0295 -0.0120 0.9773 -2.2 1.2 0.2
2025-05-13 18:59:04.429 09:22.7 1281.4 0.0317 -0.0166 0.9648 -2.3 1.5 0.4
2025-05-13 18:59:04.529 09:22.8 1268.3 0.0315 -0.0100 0.9668 -2.3 1.5 0.1
2025-05-13 18:59:04.629 09:22.9 1242.1 0.0315 -0.0127 0.9714 -2.4 1.2 0.3
2025-05-13 18:59:04.729 09:23.0 1229.0 0.0369 -0.0166 0.9744 -2.1 1.4 0.1
2025-05-13 18:59:04.828 09:23.1 1242.1 0.0356 -0.0171 0.9736 -2.0 1.5 0.2
2025-05-13 18:59:04.929 09:23.2 1229.0 0.0352 -0.0205 0.9749 -2.1 1.6 0.1
2025-05-13 18:59:05.029 09:23.3 1229.0 0.0376 -0.0134 0.9734 -2.2 1.3 0.0
2025-05-13 18:59:05.129 09:23.4 1255.2 0.0332 -0.0156 0.9746 -2.2 1.4 0.3
2025-05-13 18:59:05.229 09:23.5 1255.2 0.0286 -0.0166 0.9741 -2.3 1.5 0.2
2025-05-13 18:59:05.333 09:23.6 1255.2 0.0332 -0.0164 0.9653 -2.3 1.5 0.1
2025-05-13 18:59:05.429 09:23.7 1242.1 0.0249 -0.0146 0.9644 -2.2 1.5 0.2
2025-05-13 18:59:05.529 09:23.8 1242.1 0.0310 -0.0115 0.9663 -2.2 1.3 0.2
2025-05-13 18:59:05.629 09:23.9 1255.2 0.0344 -0.0183 0.9707 -2.4 1.3 0.3
2025-05-13 18:59:05.729 09:24.0 1242.1 0.0337 -0.0115 0.9658 -2.1 1.0 0.2
2025-05-13 18:59:05.829 09:24.1 1215.9 0.0381 -0.0142 0.9653 -2.0 1.5 0.4
2025-05-13 18:59:05.929 09:24.2 1242.1 0.0361 -0.0164 0.9846 -2.3 1.0 0.0
2025-05-13 18:59:06.029 09:24.3 1242.1 0.0325 -0.0171 0.9683 -2.4 1.4 0.1
2025-05-13 18:59:06.129 09:24.4 1229.0 0.0300 -0.0134 0.9663 -2.2 1.3 0.4
2025-05-13 18:59:06.229 09:24.5 1242.1 0.0308 -0.0112 0.9734 -2.2 1.2 0.3
2025-05-13 18:59:06.329 09:24.6 1242.1 0.0396 -0.0098 0.9722 -2.2 1.2 0.4
2025-05-13 18:59:06.429 09:24.7 1242.1 0.0293 -0.0193 0.9746 -2.2 1.4 0.2
2025-05-13 18:59:06.529 09:24.8 1242.1 0.0330 -0.0154 0.9678 -2.0 1.3 0.3
2025-05-13 18:59:06.629 09:24.9 1242.1 0.0337 -0.0112 0.9729 -2.3 0.9 0.1
2025-05-13 18:59:06.729 09:25.0 1242.1 0.0347 -0.0139 0.9629 -2.2 1.1 0.2
2025-05-13 18:59:06.829 09:25.1 1229.0 0.0403 -0.0120 0.9705 -2.3 1.3 0.3
2025-05-13 18:59:06.929 09:25.2 1242.1 0.0339 -0.0156 0.9763 -2.3 1.4 0.2
2025-05-13 18:59:07.029 09:25.3 1242.1 0.0327 -0.0146 0.9766 -2.3 1.4 0.0
2025-05-13 18:59:07.129 09:25.4 1242.1 0.0339 -0.0178 0.9709 -2.2 1.3 0.2
2025-05-13 18:59:07.229 09:25.5 1215.9 0.0354 -0.0159 0.9714 -2.2 1.4 0.4
2025-05-13 18:59:07.329 09:25.6 1202.8 0.0356 -0.0159 0.9722 -2.1 1.3 0.2
2025-05-13 18:59:07.429 09:25.7 1229.0 0.0339 -0.0193 0.9663 -2.2 1.5 0.1
2025-05-13 18:59:07.529 09:25.8 1255.2 0.0315 -0.0103 0.9739 -2.3 1.5 0.2
2025-05-13 18:59:07.629 09:25.9 1242.1 0.0344 -0.0054 0.9685 -2.1 1.4 0.2
2025-05-13 18:59:07.729 09:26.0 1229.0 0.0356 -0.0122 0.9722 -2.3 1.3 0.3
2025-05-13 18:59:07.829 09:26.1 1202.8 0.0276 -0.0173 0.9666 -2.3 1.4 0.2
2025-05-13 18:59:07.929 09:26.2 1189.7 0.0288 -0.0200 0.9749 -2.3 1.4 0.2
2025-05-13 18:59:08.029 09:26.3 1215.9 0.0352 -0.0220 0.9744 -2.4 1.3 0.2
2025-05-13 18:59:08.129 09:26.4 1215.9 0.0342 -0.0149 0.9690 -2.2 1.2 0.4
2025-05-13 18:59:08.229 09:26.5 1229.0 0.0259 -0.0149 0.9634 -2.3 1.1 0.2
2025-05-13 18:59:08.329 09:26.6 1229.0 0.0352 -0.0105 0.9653 -2.1 1.3 0.3
2025-05-13 18:59:08.429 09:26.7 1215.9 0.0371 -0.0110 0.9675 -2.1 1.3 0.3
2025-05-13 18:59:08.529 09:26.8 1229.0 0.0322 -0.0129 0.9675 -2.1 1.4 0.2
2025-05-13 18:59:08.629 09:26.9 1215.9 0.0376 -0.0173 0.9778 -2.2 1.3 0.2
2025-05-13 18:59:08.729 09:27.0 1215.9 0.0366 -0.0186 0.9646 -2.3 1.4 0.2
2025-05-13 18:59:08.829 09:27.1 1255.2 0.0325 -0.0171 0.9614 -2.1 1.4 0.2
2025-05-13 18:59:08.929 09:27.2 1242.1 0.0281 -0.0212 0.9685 -2.3 1.4 0.2
2025-05-13 18:59:09.029 09:27.3 1215.9 0.0339 -0.0127 0.9690 -2.2 1.4 0.3
2025-05-13 18:59:09.129 09:27.4 1202.8 0.0352 -0.0090 0.9685 -2.3 1.6 0.2
2025-05-13 18:59:09.229 09:27.5 1229.0 0.0322 -0.0107 0.9727 -2.1 1.3 0.2
2025-05-13 18:59:09.329 09:27.6 1229.0 0.0305 -0.0081 0.9812 -2.3 1.6 0.1
2025-05-13 18:59:09.428 09:27.7 1215.9 0.0300 -0.0144 0.9697 -2.2 1.2 0.2
2025-05-13 18:59:09.529 09:27.8 1242.1 0.0276 -0.0168 0.9688 -2.2 1.3 0.2
2025-05-13 18:59:09.629 09:27.9 1255.2 0.0281 -0.0171 0.9675 -2.2 1.3 -0.0
2025-05-13 18:59:09.729 09:28.0 1242.1 0.0308 -0.0166 0.9714 -2.3 1.4 0.2
2025-05-13 18:59:09.828 09:28.1 1215.9 0.0339 -0.0159 0.9658 -2.3 1.4 0.2
2025-05-13 18:59:09.929 09:28.2 1215.9 0.0325 -0.0142 0.9685 -2.3 1.4 0.3
2025-05-13 18:59:10.029 09:28.3 1229.0 0.0298 -0.0127 0.9622 -2.3 1.3 0.2
2025-05-13 18:59:10.129 09:28.4 1229.0 0.0332 -0.0151 0.9697 -2.1 0.9 0.2
2025-05-13 18:59:10.229 09:28.5 1255.2 0.0337 -0.0151 0.9695 -2.2 1.3 0.4
2025-05-13 18:59:10.329 09:28.6 1255.2 0.0359 -0.0181 0.9729 -2.2 1.4 0.3
2025-05-13 18:59:10.429 09:28.7 1268.3 0.0317 -0.0178 0.9697 -2.2 1.2 0.3
2025-05-13 18:59:10.529 09:28.8 1242.1 0.0295 -0.0154 0.9678 -2.3 1.5 0.3
2025-05-13 18:59:10.629 09:28.9 1215.9 0.0354 -0.0151 0.9775 -2.4 1.6 0.1
2025-05-13 18:59:10.729 09:29.0 1189.7 0.0337 -0.0103 0.9668 -2.2 1.4 0.2
2025-05-13 18:59:10.829 09:29.1 1189.7 0.0293 -0.0183 0.9724 -2.2 1.5 0.1
2025-05-13 18:59:10.929 09:29.2 1202.8 0.0369 -0.0122 0.9744 -2.2 1.3 0.1
2025-05-13 18:59:11.028 09:29.3 1202.8 0.0332 -0.0176 0.9641 -2.0 1.1 0.4
2025-05-13 18:59:11.129 09:29.4 1215.9 0.0283 -0.0117 0.9612 -2.0 1.3 0.1
2025-05-13 18:59:11.229 09:29.5 1215.9 0.0393 -0.0183 0.9692 -2.1 1.5 0.1
2025-05-13 18:59:11.329 09:29.6 1229.0 0.0361 -0.0166 0.9695 -2.1 1.2 0.2
2025-05-13 18:59:11.429 09:29.7 1255.2 0.0369 -0.0132 0.9707 -2.3 1.3 0.2
2025-05-13 18:59:11.529 09:29.8 1255.2 0.0337 -0.0129 0.9727 -2.5 1.4 0.2
2025-05-13 18:59:11.629 09:29.9 1229.0 0.0398 -0.0146 0.9751 -2.3 1.0 0.0
2025-05-13 18:59:11.729 09:30.0 1215.9 0.0305 -0.0161 0.9666 -2.1 1.3 0.4
2025-05-13 18:59:11.829 09:30.1 1229.0 0.0371 -0.0112 0.9734 -2.2 1.4 0.1
2025-05-13 18:59:11.929 09:30.2 1268.3 0.0332 -0.0217 0.9717 -2.2 1.4 0.2
2025-05-13 18:59:12.030 09:30.3 1229.0 0.0374 -0.0198 0.9636 -2.6 1.3 0.2
2025-05-13 18:59:12.129 09:30.4 1202.8 0.0369 -0.0198 0.9724 -2.2 1.3 0.4
2025-05-13 18:59:12.229 09:30.5 1229.0 0.0352 -0.0149 0.9673 -2.1 1.5 0.3
2025-05-13 18:59:12.329 09:30.6 1215.9 0.0371 -0.0232 0.9707 -2.2 1.4 0.3
2025-05-13 18:59:12.429 09:30.7 1229.0 0.0425 -0.0137 0.9692 -2.2 1.2 0.2
2025-05-13 18:59:12.529 09:30.8 1281.4 0.0293 -0.0146 0.9690 -2.2 1.6 0.4
2025-05-13 18:59:12.628 09:30.9 1307.7 0.0339 -0.0115 0.9727 -2.3 1.5 0.2
2025-05-13 18:59:12.729 09:31.0 1242.1 0.0410 -0.0144 0.9683 -2.2 1.1 0.2
2025-05-13 18:59:12.829 09:31.1 1242.1 0.0315 -0.0146 0.9709 -2.3 1.1 0.3
2025-05-13 18:59:12.928 09:31.2 1255.2 0.0378 -0.0117 0.9705 -2.2 1.3 0.2
2025-05-13 18:59:13.028 09:31.3 1229.0 0.0381 -0.0190 0.9678 -2.1 1.1 0.2
2025-05-13 18:59:13.129 09:31.4 1255.2 0.0295 -0.0161 0.9741 -2.1 1.3 0.1
2025-05-13 18:59:13.228 09:31.5 1242.1 0.0427 -0.0063 0.9722 -2.2 1.6 0.3
2025-05-13 18:59:13.329 09:31.6 1242.1 0.0332 -0.0146 0.9666 -2.2 1.3 0.1
2025-05-13 18:59:13.429 09:31.7 1242.1 0.0295 -0.0149 0.9595 -2.2 1.3 0.1
2025-05-13 18:59:13.529 09:31.8 1268.3 0.0293 -0.0115 0.9646 -2.3 1.4 0.4
2025-05-13 18:59:13.629 09:31.9 1268.3 0.0266 -0.0127 0.9724 -2.1 0.9 0.2
2025-05-13 18:59:13.728 09:32.0 1255.2 0.0305 -0.0154 0.9666 -2.1 1.5 0.1
2025-05-13 18:59:13.829 09:32.1 1268.3 0.0417 -0.0103 0.9653 -2.4 1.3 0.3
2025-05-13 18:59:13.929 09:32.2 1268.3 0.0408 -0.0154 0.9700 -2.3 1.2 0.3
2025-05-13 18:59:14.029 09:32.3 1268.3 0.0374 -0.0171 0.9729 -2.3 1.1 0.1
2025-05-13 18:59:14.128 09:32.4 1255.2 0.0315 -0.0137 0.9727 -2.3 1.3 0.2
2025-05-13 18:59:14.229 09:32.5 1242.1 0.0315 -0.0156 0.9766 -2.2 1.4 0.1
2025-05-13 18:59:14.329 09:32.6 1242.1 0.0337 -0.0103 0.9651 -2.3 1.1 0.3
2025-05-13 18:59:14.429 09:32.7 1268.3 0.0310 -0.0186 0.9724 -2.3 1.2 0.1
2025-05-13 18:59:14.529 09:32.8 1281.4 0.0291 -0.0090 0.9731 -2.2 1.2 0.1
2025-05-13 18:59:14.629 09:32.9 1281.4 0.0325 -0.0146 0.9771 -2.4 1.3 0.3
2025-05-13 18:59:14.729 09:33.0 1268.3 0.0320 -0.0142 0.9692 -2.2 1.4 0.2
2025-05-13 18:59:14.830 09:33.1 1242.1 0.0342 -0.0129 0.9736 -2.1 1.3 0.3
2025-05-13 18:59:14.929 09:33.2 1281.4 0.0334 -0.0090 0.9692 -2.2 1.4 0.3
2025-05-13 18:59:15.029 09:33.3 1294.5 0.0405 -0.0134 0.9714 -2.3 1.4 0.1
2025-05-13 18:59:15.128 09:33.4 1255.2 0.0415 -0.0142 0.9685 -2.3 1.6 0.2
2025-05-13 18:59:15.229 09:33.5 1242.1 0.0352 -0.0161 0.9734 -2.2 1.6 0.3
2025-05-13 18:59:15.328 09:33.6 1255.2 0.0366 -0.0129 0.9614 -2.2 1.3 0.2
2025-05-13 18:59:15.428 09:33.7 1255.2 0.0325 -0.0134 0.9673 -1.9 1.3 0.2
2025-05-13 18:59:15.528 09:33.8 1242.1 0.0298 -0.0146 0.9683 -2.1 1.3 0.2
2025-05-13 18:59:15.629 09:33.9 1268.3 0.0366 -0.0122 0.9766 -2.0 1.4 0.1
2025-05-13 18:59:15.728 09:34.0 1281.4 0.0359 -0.0168 0.9666 -2.4 1.3 0.2
2025-05-13 18:59:15.828 09:34.1 1268.3 0.0432 -0.0200 0.9702 -2.3 1.4 0.3
2025-05-13 18:59:15.929 09:34.2 1229.0 0.0371 -0.0146 0.9714 -2.4 1.5 0.1
2025-05-13 18:59:16.028 09:34.3 1189.7 0.0291 -0.0107 0.9771 -2.3 1.4 0.2
2025-05-13 18:59:16.129 09:34.4 1229.0 0.0327 -0.0151 0.9719 -2.4 1.2 0.3
2025-05-13 18:59:16.229 09:34.5 1281.4 0.0291 -0.0088 0.9685 -2.3 1.5 0.2
2025-05-13 18:59:16.329 09:34.6 1281.4 0.0354 -0.0193 0.9739 -2.0 1.4 0.2
2025-05-13 18:59:16.428 09:34.7 1281.4 0.0376 -0.0188 0.9685 -2.3 1.3 0.2
2025-05-13 18:59:16.529 09:34.8 1268.3 0.0312 -0.0203 0.9736 -2.1 1.4 0.3
2025-05-13 18:59:16.629 09:34.9 1229.0 0.0251 -0.0081 0.9658 -2.2 1.2 0.2
2025-05-13 18:59:16.729 09:35.0 1189.7 0.0286 -0.0132 0.9651 -1.9 1.4 0.2
2025-05-13 18:59:16.828 09:35.1 1215.9 0.0330 -0.0044 0.9673 -2.3 1.3 0.3
2025-05-13 18:59:16.928 09:35.2 1229.0 0.0330 -0.0151 0.9678 -2.2 1.3 0.3
2025-05-13 18:59:17.028 09:35.3 1229.0 0.0310 -0.0183 0.9692 -2.1 1.5 0.2
2025-05-13 18:59:17.129 09:35.4 1229.0 0.0386 -0.0139 0.9692 -2.1 1.3 0.2
2025-05-13 18:59:17.229 09:35.5 1229.0 0.0386 -0.0166 0.9727 -2.2 1.2 0.2
2025-05-13 18:59:17.328 09:35.6 1229.0 0.0259 -0.0208 0.9658 -2.2 1.5 0.2
2025-05-13 18:59:17.429 09:35.7 1176.6 0.0361 -0.0183 0.9683 -2.4 1.3 0.2
2025-05-13 18:59:17.528 09:35.8 1163.5 0.0366 -0.0171 0.9666 -2.4 1.4 0.1
2025-05-13 18:59:17.629 09:35.9 1176.6 0.0354 -0.0115 0.9761 -2.1 1.3 0.2
2025-05-13 18:59:17.729 09:36.0 1163.5 0.0310 -0.0154 0.9724 -2.4 1.4 0.1
2025-05-13 18:59:17.829 09:36.1 1163.5 0.0361 -0.0168 0.9626 -2.2 1.3 0.2
2025-05-13 18:59:17.929 09:36.2 1176.6 0.0417 -0.0159 0.9707 -2.3 1.1 0.3
2025-05-13 18:59:18.028 09:36.3 1189.7 0.0386 -0.0161 0.9651 -2.2 1.4 0.3
2025-05-13 18:59:18.129 09:36.4 1202.8 0.0361 -0.0178 0.9736 -2.3 1.4 0.3
2025-05-13 18:59:18.228 09:36.5 1189.7 0.0312 -0.0208 0.9724 -2.1 1.1 0.1
2025-05-13 18:59:18.329 09:36.6 1189.7 0.0366 -0.0188 0.9702 -2.0 1.0 0.4
2025-05-13 18:59:18.428 09:36.7 1202.8 0.0332 -0.0186 0.9741 -2.3 1.5 0.2
2025-05-13 18:59:18.528 09:36.8 1242.1 0.0398 -0.0144 0.9700 -2.3 1.1 0.4
2025-05-13 18:59:18.628 09:36.9 1268.3 0.0261 -0.0166 0.9729 -2.3 1.3 0.2
2025-05-13 18:59:18.728 09:37.0 1242.1 0.0349 -0.0129 0.9656 -2.0 1.2 0.1
2025-05-13 18:59:18.828 09:37.1 1229.0 0.0308 -0.0142 0.9680 -2.1 1.3 0.2
2025-05-13 18:59:18.929 09:37.2 1242.1 0.0371 -0.0073 0.9639 -2.3 1.2 0.4
2025-05-13 18:59:19.028 09:37.3 1229.0 0.0356 -0.0156 0.9736 -2.1 1.3 0.2
2025-05-13 18:59:19.129 09:37.4 1202.8 0.0381 -0.0144 0.9731 -2.3 1.4 0.2
2025-05-13 18:59:19.228 09:37.5 1202.8 0.0293 -0.0176 0.9688 -2.2 1.6 0.4
2025-05-13 18:59:19.328 09:37.6 1229.0 0.0291 -0.0154 0.9688 -2.3 1.3 0.2
2025-05-13 18:59:19.428 09:37.7 1255.2 0.0349 -0.0210 0.9685 -2.0 1.2 0.3
2025-05-13 18:59:19.528 09:37.8 1268.3 0.0271 -0.0100 0.9722 -2.2 1.5 0.3
2025-05-13 18:59:19.628 09:37.9 1255.2 0.0325 -0.0203 0.9700 -2.3 1.6 0.1
2025-05-13 18:59:19.729 09:38.0 1242.1 0.0393 -0.0090 0.9653 -2.3 1.5 0.2
2025-05-13 18:59:19.828 09:38.1 1255.2 0.0371 -0.0154 0.9812 -2.3 1.3 0.3
2025-05-13 18:59:19.929 09:38.2 1242.1 0.0342 -0.0115 0.9727 -2.2 1.2 0.3
2025-05-13 18:59:20.028 09:38.3 1229.0 0.0361 -0.0144 0.9651 -2.3 1.3 0.2
2025-05-13 18:59:20.129 09:38.4 1229.0 0.0378 -0.0151 0.9722 -2.2 1.3 0.0
2025-05-13 18:59:20.229 09:38.5 1229.0 0.0400 -0.0229 0.9739 -2.2 1.1 0.1
2025-05-13 18:59:20.328 09:38.6 1215.9 0.0361 -0.0193 0.9775 -2.2 1.1 0.4
2025-05-13 18:59:20.428 09:38.7 1215.9 0.0310 -0.0210 0.9724 -2.3 1.3 0.4
2025-05-13 18:59:20.529 09:38.8 1229.0 0.0325 -0.0115 0.9756 -2.3 1.5 0.3
2025-05-13 18:59:20.629 09:38.9 1229.0 0.0325 -0.0164 0.9666 -2.4 1.2 0.2
2025-05-13 18:59:20.728 09:39.0 1229.0 0.0264 -0.0161 0.9709 -2.2 1.3 0.1
2025-05-13 18:59:20.828 09:39.1 1215.9 0.0334 -0.0212 0.9670 -2.1 1.4 0.3
2025-05-13 18:59:20.929 09:39.2 1229.0 0.0388 -0.0146 0.9702 -2.3 1.2 0.3
2025-05-13 18:59:21.028 09:39.3 1215.9 0.0312 -0.0173 0.9634 -2.3 1.4 0.3
2025-05-13 18:59:21.129 09:39.4 1229.0 0.0405 -0.0195 0.9722 -2.2 1.2 0.2
2025-05-13 18:59:21.228 09:39.5 1255.2 0.0388 -0.0183 0.9751 -2.1 1.3 0.3
2025-05-13 18:59:21.328 09:39.6 1255.2 0.0366 -0.0198 0.9724 -2.2 1.4 0.2
2025-05-13 18:59:21.428 09:39.7 1268.3 0.0291 -0.0161 0.9766 -2.2 1.2 0.2
2025-05-13 18:59:21.529 09:39.8 1229.0 0.0273 -0.0137 0.9644 -2.2 1.5 0.3
2025-05-13 18:59:21.629 09:39.9 1215.9 0.0332 -0.0120 0.9678 -2.3 1.4 0.3
2025-05-13 18:59:21.729 09:40.0 1229.0 0.0305 -0.0081 0.9656 -2.2 1.4 0.2
2025-05-13 18:59:21.828 09:40.1 1255.2 0.0308 -0.0137 0.9714 -2.4 1.3 0.2
2025-05-13 18:59:21.929 09:40.2 1255.2 0.0354 -0.0110 0.9736 -2.1 1.3 0.3
2025-05-13 18:59:22.029 09:40.3 1229.0 0.0371 -0.0103 0.9580 -2.3 1.4 0.1
2025-05-13 18:59:22.128 09:40.4 1229.0 0.0349 -0.0176 0.9685 -2.2 1.3 0.3
2025-05-13 18:59:22.228 09:40.5 1229.0 0.0308 -0.0186 0.9685 -2.4 1.0 0.3
2025-05-13 18:59:22.329 09:40.6 1281.4 0.0371 -0.0142 0.9749 -2.0 1.4 0.2
2025-05-13 18:59:22.429 09:40.7 1268.3 0.0295 -0.0190 0.9661 -2.2 1.1 0.2
2025-05-13 18:59:22.528 09:40.8 1229.0 0.0364 -0.0137 0.9702 -2.2 1.0 0.3
2025-05-13 18:59:22.628 09:40.9 1242.1 0.0305 -0.0190 0.9722 -2.1 1.3 0.1
2025-05-13 18:59:22.728 09:41.0 1242.1 0.0291 -0.0159 0.9585 -2.3 1.5 0.3
2025-05-13 18:59:22.828 09:41.1 1215.9 0.0315 -0.0156 0.9673 -2.2 1.5 0.3
2025-05-13 18:59:22.929 09:41.2 1242.1 0.0322 -0.0098 0.9714 -2.1 1.2 0.2
2025-05-13 18:59:23.029 09:41.3 1255.2 0.0344 -0.0188 0.9722 -2.2 1.3 0.2
2025-05-13 18:59:23.128 09:41.4 1242.1 0.0256 -0.0132 0.9724 -2.2 1.2 0.2
2025-05-13 18:59:23.229 09:41.5 1229.0 0.0286 -0.0139 0.9761 -2.3 1.1 0.1
2025-05-13 18:59:23.328 09:41.6 1242.1 0.0376 -0.0134 0.9629 -2.1 1.3 0.3
2025-05-13 18:59:23.428 09:41.7 1255.2 0.0386 -0.0156 0.9697 -2.3 1.6 0.2
2025-05-13 18:59:23.529 09:41.8 1215.9 0.0354 -0.0139 0.9648 -2.2 1.1 0.4
2025-05-13 18:59:23.629 09:41.9 1215.9 0.0325 -0.0159 0.9736 -2.3 1.4 0.1
2025-05-13 18:59:23.729 09:42.0 1255.2 0.0349 -0.0137 0.9722 -2.2 1.4 0.2
2025-05-13 18:59:23.829 09:42.1 1255.2 0.0354 -0.0120 0.9788 -2.4 1.2 0.2
2025-05-13 18:59:23.929 09:42.2 1242.1 0.0391 -0.0095 0.9670 -1.9 1.2 0.2
2025-05-13 18:59:24.029 09:42.3 1215.9 0.0337 -0.0139 0.9636 -2.0 1.4 0.2
2025-05-13 18:59:24.128 09:42.4 1229.0 0.0317 -0.0171 0.9792 -2.2 1.1 -0.0
2025-05-13 18:59:24.229 09:42.5 1229.0 0.0356 -0.0220 0.9778 -2.0 1.2 0.3
2025-05-13 18:59:24.328 09:42.6 1242.1 0.0312 -0.0154 0.9724 -2.4 1.4 0.1
2025-05-13 18:59:24.428 09:42.7 1255.2 0.0356 -0.0139 0.9766 -2.2 1.2 0.1
2025-05-13 18:59:24.528 09:42.8 1242.1 0.0330 -0.0159 0.9648 -2.1 1.5 0.2
2025-05-13 18:59:24.629 09:42.9 1255.2 0.0364 -0.0139 0.9683 -2.2 1.5 0.2
2025-05-13 18:59:24.728 09:43.0 1255.2 0.0352 -0.0127 0.9670 -2.2 1.4 0.3
2025-05-13 18:59:24.828 09:43.1 1242.1 0.0349 -0.0173 0.9705 -2.2 1.5 0.3
2025-05-13 18:59:24.929 09:43.2 1229.0 0.0371 -0.0134 0.9648 -1.9 1.1 0.3
2025-05-13 18:59:25.029 09:43.3 1255.2 0.0339 -0.0117 0.9722 -2.2 1.4 0.2
2025-05-13 18:59:25.128 09:43.4 1268.3 0.0371 -0.0205 0.9658 -2.1 1.4 0.1
2025-05-13 18:59:25.228 09:43.5 1242.1 0.0361 -0.0134 0.9675 -2.1 1.4 0.3
2025-05-13 18:59:25.329 09:43.6 1215.9 0.0330 -0.0127 0.9775 -2.2 1.4 0.2
2025-05-13 18:59:25.428 09:43.7 1255.2 0.0393 -0.0144 0.9727 -2.2 1.5 0.3
2025-05-13 18:59:25.528 09:43.8 1255.2 0.0359 -0.0085 0.9714 -2.2 1.5 0.4
2025-05-13 18:59:25.628 09:43.9 1229.0 0.0393 -0.0144 0.9697 -2.2 1.5 0.3
2025-05-13 18:59:25.729 09:44.0 1268.3 0.0388 -0.0210 0.9653 -2.2 1.5 0.0
2025-05-13 18:59:25.829 09:44.1 1229.0 0.0371 -0.0208 0.9666 -2.2 1.3 0.3
2025-05-13 18:59:25.928 09:44.2 1215.9 0.0413 -0.0188 0.9673 -2.3 1.5 0.1
2025-05-13 18:59:26.028 09:44.3 1242.1 0.0315 -0.0178 0.9688 -2.2 1.5 0.2
2025-05-13 18:59:26.129 09:44.4 1229.0 0.0349 -0.0103 0.9680 -2.3 1.5 0.2
2025-05-13 18:59:26.229 09:44.5 1229.0 0.0361 -0.0186 0.9775 -2.2 1.5 0.2
2025-05-13 18:59:26.328 09:44.6 1215.9 0.0381 -0.0171 0.9695 -2.3 1.3 0.1
2025-05-13 18:59:26.428 09:44.7 1229.0 0.0312 -0.0127 0.9666 -2.2 1.4 0.3
2025-05-13 18:59:26.529 09:44.8 1229.0 0.0376 -0.0164 0.9788 -2.4 1.5 0.1
2025-05-13 18:59:26.628 09:44.9 1242.1 0.0288 -0.0173 0.9766 -2.3 1.5 0.2
2025-05-13 18:59:26.729 09:45.0 1255.2 0.0337 -0.0171 0.9675 -2.2 1.4 0.2
2025-05-13 18:59:26.829 09:45.1 1268.3 0.0317 -0.0156 0.9678 -2.4 1.1 0.3
2025-05-13 18:59:26.928 09:45.2 1242.1 0.0334 -0.0183 0.9680 -2.3 1.2 0.2
2025-05-13 18:59:27.028 09:45.3 1229.0 0.0352 -0.0146 0.9683 -2.2 1.2 0.2
2025-05-13 18:59:27.129 09:45.4 1255.2 0.0312 -0.0127 0.9739 -2.2 1.3 0.3
2025-05-13 18:59:27.228 09:45.5 1255.2 0.0403 -0.0137 0.9670 -2.2 1.0 0.3
2025-05-13 18:59:27.328 09:45.6 1255.2 0.0334 -0.0159 0.9714 -2.2 1.5 0.2
2025-05-13 18:59:27.429 09:45.7 1255.2 0.0349 -0.0161 0.9751 -2.1 1.3 0.2
2025-05-13 18:59:27.528 09:45.8 1255.2 0.0403 -0.0142 0.9707 -2.2 1.5 0.4
2025-05-13 18:59:27.629 09:45.9 1268.3 0.0286 -0.0171 0.9644 -2.3 1.3 0.3
2025-05-13 18:59:27.728 09:46.0 1255.2 0.0322 -0.0176 0.9619 -2.1 1.2 0.4
2025-05-13 18:59:27.828 09:46.1 1229.0 0.0305 -0.0134 0.9746 -2.2 1.4 0.3
2025-05-13 18:59:27.928 09:46.2 1242.1 0.0327 -0.0188 0.9692 -2.3 1.3 0.3
2025-05-13 18:59:28.028 09:46.3 1242.1 0.0337 -0.0178 0.9639 -2.3 1.4 0.2
2025-05-13 18:59:28.128 09:46.4 1242.1 0.0356 -0.0154 0.9771 -2.2 1.7 0.2
2025-05-13 18:59:28.228 09:46.5 1268.3 0.0334 -0.0151 0.9817 -2.3 1.2 0.2
2025-05-13 18:59:28.328 09:46.6 1255.2 0.0356 -0.0154 0.9680 -2.3 1.4 0.2
2025-05-13 18:59:28.428 09:46.7 1229.0 0.0342 -0.0146 0.9614 -2.3 1.3 0.3
2025-05-13 18:59:28.528 09:46.8 1255.2 0.0361 -0.0200 0.9719 -2.2 1.3 0.2
2025-05-13 18:59:28.628 09:46.9 1255.2 0.0330 -0.0154 0.9636 -2.3 1.3 0.1
2025-05-13 18:59:28.728 09:47.0 1202.8 0.0308 -0.0173 0.9709 -2.1 1.4 0.2
2025-05-13 18:59:28.828 09:47.1 1229.0 0.0344 -0.0127 0.9619 -2.2 1.2 0.1
2025-05-13 18:59:28.928 09:47.2 1255.2 0.0325 -0.0159 0.9651 -2.3 1.3 0.2
2025-05-13 18:59:29.028 09:47.3 1255.2 0.0359 -0.0178 0.9775 -2.4 1.2 0.2
2025-05-13 18:59:29.128 09:47.4 1255.2 0.0354 -0.0083 0.9578 -2.2 1.5 0.3
2025-05-13 18:59:29.229 09:47.5 1255.2 0.0317 -0.0195 0.9697 -2.2 1.2 0.2
2025-05-13 18:59:29.329 09:47.6 1215.9 0.0298 -0.0181 0.9739 -2.3 1.6 0.3
2025-05-13 18:59:29.428 09:47.7 1215.9 0.0354 -0.0137 0.9692 -2.1 1.5 0.3
2025-05-13 18:59:29.529 09:47.8 1268.3 0.0315 -0.0171 0.9668 -2.3 1.2 0.3
2025-05-13 18:59:29.628 09:47.9 1268.3 0.0354 -0.0171 0.9648 -2.3 1.3 0.3
2025-05-13 18:59:29.728 09:48.0 1268.3 0.0317 -0.0164 0.9673 -2.3 1.3 0.2
2025-05-13 18:59:29.829 09:48.1 1281.4 0.0327 -0.0208 0.9651 -2.3 1.2 0.1
2025-05-13 18:59:29.929 09:48.2 1242.1 0.0308 -0.0142 0.9739 -2.1 1.1 0.0
2025-05-13 18:59:30.028 09:48.3 1215.9 0.0288 -0.0156 0.9778 -2.2 1.5 0.4
2025-05-13 18:59:30.128 09:48.4 1229.0 0.0337 -0.0129 0.9722 -2.2 1.3 0.1
2025-05-13 18:59:30.228 09:48.5 1229.0 0.0381 -0.0154 0.9758 -2.2 1.3 0.2
2025-05-13 18:59:30.329 09:48.6 1229.0 0.0293 -0.0095 0.9722 -2.4 1.3 0.2
2025-05-13 18:59:30.429 09:48.7 1242.1 0.0330 -0.0146 0.9663 -2.1 1.5 0.2
2025-05-13 18:59:30.529 09:48.8 1255.2 0.0344 -0.0127 0.9685 -2.2 1.4 0.3
2025-05-13 18:59:30.628 09:48.9 1255.2 0.0349 -0.0149 0.9761 -2.1 1.4 0.1
2025-05-13 18:59:30.729 09:49.0 1242.1 0.0403 -0.0178 0.9727 -2.2 1.5 0.3
2025-05-13 18:59:30.829 09:49.1 1242.1 0.0366 -0.0178 0.9729 -2.1 1.2 0.2
2025-05-13 18:59:30.929 09:49.2 1229.0 0.0310 -0.0215 0.9685 -2.2 1.4 0.3
2025-05-13 18:59:31.029 09:49.3 1242.1 0.0347 -0.0146 0.9766 -2.2 1.5 0.3
2025-05-13 18:59:31.129 09:49.4 1255.2 0.0371 -0.0134 0.9673 -2.4 1.6 0.2
2025-05-13 18:59:31.229 09:49.5 1255.2 0.0364 -0.0112 0.9761 -2.3 1.3 0.4
2025-05-13 18:59:31.329 09:49.6 1242.1 0.0383 -0.0115 0.9609 -2.0 1.5 0.1
2025-05-13 18:59:31.428 09:49.7 1229.0 0.0398 -0.0144 0.9646 -2.2 1.6 0.1
2025-05-13 18:59:31.529 09:49.8 1229.0 0.0388 -0.0159 0.9683 -2.2 1.4 0.3
2025-05-13 18:59:31.629 09:49.9 1229.0 0.0322 -0.0173 0.9727 -2.2 1.4 0.1
2025-05-13 18:59:31.729 09:50.0 1215.9 0.0349 -0.0161 0.9666 -2.4 1.4 0.2
2025-05-13 18:59:31.828 09:50.1 1215.9 0.0347 -0.0161 0.9646 -2.4 1.3 0.3
2025-05-13 18:59:31.929 09:50.2 1229.0 0.0327 -0.0134 0.9727 -2.3 1.5 0.4
2025-05-13 18:59:32.029 09:50.3 1229.0 0.0327 -0.0127 0.9729 -2.1 1.4 0.2
2025-05-13 18:59:32.129 09:50.4 1229.0 0.0320 -0.0166 0.9712 -2.2 1.5 0.1
2025-05-13 18:59:32.229 09:50.5 1215.9 0.0303 -0.0198 0.9719 -2.1 1.4 0.2
2025-05-13 18:59:32.328 09:50.6 1242.1 0.0342 -0.0166 0.9685 -2.2 1.6 0.2
2025-05-13 18:59:32.428 09:50.7 1229.0 0.0305 -0.0156 0.9744 -2.3 1.2 0.3
2025-05-13 18:59:32.529 09:50.8 1229.0 0.0349 -0.0142 0.9692 -2.3 1.5 0.2
2025-05-13 18:59:32.628 09:50.9 1242.1 0.0388 -0.0107 0.9736 -2.1 1.6 0.1
2025-05-13 18:59:32.728 09:51.0 1229.0 0.0349 -0.0200 0.9773 -2.1 1.3 0.2
2025-05-13 18:59:32.828 09:51.1 1215.9 0.0356 -0.0183 0.9719 -2.2 1.4 0.2
2025-05-13 18:59:32.928 09:51.2 1242.1 0.0298 -0.0112 0.9714 -2.3 1.4 0.2
2025-05-13 18:59:33.029 09:51.3 1242.1 0.0288 -0.0176 0.9766 -2.3 1.3 0.2
2025-05-13 18:59:33.129 09:51.4 1215.9 0.0347 -0.0159 0.9756 -2.3 1.2 0.4
2025-05-13 18:59:33.228 09:51.5 1202.8 0.0293 -0.0110 0.9678 -2.1 1.2 0.3
2025-05-13 18:59:33.328 09:51.6 1202.8 0.0303 -0.0120 0.9695 -2.1 1.6 0.3
2025-05-13 18:59:33.428 09:51.7 1229.0 0.0300 -0.0142 0.9712 -2.4 1.3 0.2
2025-05-13 18:59:33.528 09:51.8 1242.1 0.0337 -0.0166 0.9648 -2.3 1.2 0.2
2025-05-13 18:59:33.628 09:51.9 1215.9 0.0320 -0.0134 0.9670 -2.4 1.5 0.2
2025-05-13 18:59:33.728 09:52.0 1189.7 0.0330 -0.0146 0.9646 -2.3 1.4 0.3
2025-05-13 18:59:33.828 09:52.1 1215.9 0.0308 -0.0161 0.9753 -2.3 1.2 0.1
2025-05-13 18:59:33.928 09:52.2 1255.2 0.0369 -0.0144 0.9656 -2.2 1.4 0.1
2025-05-13 18:59:34.029 09:52.3 1229.0 0.0400 -0.0178 0.9729 -2.1 1.4 0.3
2025-05-13 18:59:34.128 09:52.4 1202.8 0.0349 -0.0149 0.9602 -2.3 1.3 0.2
2025-05-13 18:59:34.228 09:52.5 1202.8 0.0364 -0.0137 0.9670 -2.2 1.5 0.2
2025-05-13 18:59:34.328 09:52.6 1202.8 0.0332 -0.0142 0.9761 -2.2 1.5 0.2
2025-05-13 18:59:34.428 09:52.7 1202.8 0.0332 -0.0125 0.9678 -2.4 1.4 0.2
2025-05-13 18:59:34.529 09:52.8 1202.8 0.0347 -0.0151 0.9690 -2.4 1.2 0.2
2025-05-13 18:59:34.628 09:52.9 1202.8 0.0315 -0.0168 0.9702 -2.2 1.4 0.2
2025-05-13 18:59:34.729 09:53.0 1215.9 0.0378 -0.0178 0.9756 -2.2 1.1 0.0
2025-05-13 18:59:34.828 09:53.1 1202.8 0.0342 -0.0186 0.9619 -2.1 1.3 0.3
2025-05-13 18:59:34.928 09:53.2 1202.8 0.0413 -0.0103 0.9702 -2.2 1.3 0.3
2025-05-13 18:59:35.028 09:53.3 1215.9 0.0322 -0.0168 0.9636 -2.0 1.3 0.3
2025-05-13 18:59:35.128 09:53.4 1229.0 0.0344 -0.0090 0.9761 -2.4 1.4 0.3
2025-05-13 18:59:35.228 09:53.5 1242.1 0.0269 -0.0156 0.9705 -2.1 1.4 0.1
2025-05-13 18:59:35.329 09:53.6 1229.0 0.0374 -0.0151 0.9685 -2.4 1.5 0.2
2025-05-13 18:59:35.428 09:53.7 1202.8 0.0291 -0.0212 0.9761 -2.2 1.3 0.2
2025-05-13 18:59:35.529 09:53.8 1189.7 0.0276 -0.0134 0.9673 -2.2 1.5 0.2
2025-05-13 18:59:35.628 09:53.9 1202.8 0.0349 -0.0137 0.9631 -2.3 1.2 0.3
2025-05-13 18:59:35.728 09:54.0 1229.0 0.0354 -0.0105 0.9771 -2.3 1.4 0.2
2025-05-13 18:59:35.828 09:54.1 1215.9 0.0383 -0.0146 0.9712 -2.2 1.4 0.1
2025-05-13 18:59:35.928 09:54.2 1189.7 0.0381 -0.0161 0.9731 -2.4 1.3 0.1
2025-05-13 18:59:36.028 09:54.3 1229.0 0.0369 -0.0146 0.9712 -2.4 1.3 0.0
2025-05-13 18:59:36.129 09:54.4 1255.2 0.0352 -0.0144 0.9729 -2.1 1.5 0.2
2025-05-13 18:59:36.228 09:54.5 1215.9 0.0300 -0.0186 0.9651 -2.2 1.3 0.3
2025-05-13 18:59:36.328 09:54.6 1215.9 0.0310 -0.0166 0.9670 -2.4 1.4 0.2
2025-05-13 18:59:36.428 09:54.7 1215.9 0.0349 -0.0181 0.9656 -2.3 1.4 0.0
2025-05-13 18:59:36.549 09:54.8 1202.8 0.0356 -0.0095 0.9756 -2.2 1.2 0.2
2025-05-13 18:59:36.628 09:54.9 1242.1 0.0410 -0.0151 0.9697 -2.2 1.4 0.4
2025-05-13 18:59:36.729 09:55.0 1215.9 0.0388 -0.0134 0.9741 -2.1 1.5 0.3
2025-05-13 18:59:36.828 09:55.1 1202.8 0.0383 -0.0146 0.9749 -2.2 1.4 0.3
2025-05-13 18:59:36.928 09:55.2 1242.1 0.0332 -0.0139 0.9641 -2.5 1.3 0.3
2025-05-13 18:59:37.028 09:55.3 1242.1 0.0386 -0.0117 0.9697 -2.0 1.2 0.3
2025-05-13 18:59:37.128 09:55.4 1268.3 0.0283 -0.0166 0.9675 -2.2 1.1 0.3
2025-05-13 18:59:37.228 09:55.5 1281.4 0.0249 -0.0142 0.9695 -2.2 1.2 0.1
2025-05-13 18:59:37.328 09:55.6 1268.3 0.0342 -0.0190 0.9746 -2.2 1.3 0.1
2025-05-13 18:59:37.428 09:55.7 1268.3 0.0308 -0.0154 0.9673 -2.3 1.3 0.2
2025-05-13 18:59:37.528 09:55.8 1255.2 0.0330 -0.0129 0.9692 -2.4 1.4 0.2
2025-05-13 18:59:37.628 09:55.9 1215.9 0.0327 -0.0173 0.9739 -2.2 1.6 0.2
2025-05-13 18:59:37.729 09:56.0 1202.8 0.0283 -0.0229 0.9683 -2.1 1.2 0.3
2025-05-13 18:59:37.828 09:56.1 1229.0 0.0315 -0.0139 0.9814 -2.3 1.4 0.2
2025-05-13 18:59:37.928 09:56.2 1242.1 0.0369 -0.0171 0.9705 -2.1 1.3 0.2
2025-05-13 18:59:38.028 09:56.3 1242.1 0.0405 -0.0200 0.9675 -2.2 1.1 0.3
2025-05-13 18:59:38.128 09:56.4 1242.1 0.0410 -0.0107 0.9670 -2.2 1.3 0.3
2025-05-13 18:59:38.228 09:56.5 1229.0 0.0388 -0.0105 0.9722 -2.2 1.4 0.1
2025-05-13 18:59:38.328 09:56.6 1229.0 0.0295 -0.0149 0.9658 -2.3 1.1 0.4
2025-05-13 18:59:38.429 09:56.7 1242.1 0.0325 -0.0159 0.9653 -2.2 1.3 0.2
2025-05-13 18:59:38.528 09:56.8 1229.0 0.0400 -0.0173 0.9719 -2.2 1.2 0.4
2025-05-13 18:59:38.628 09:56.9 1215.9 0.0300 -0.0161 0.9624 -2.0 1.2 0.2
